ExperimentName	Subject	Session	Clock.Information	Clock.StartTimeOfDay	Display.RefreshRate	Group	RandomSeed	SessionDate	SessionTime	SessionTimeUtc	Block	Procedure.Block.	Running.Block.	Sound.LoadAffinity	WholeExperiment	WholeExperiment.Cycle	WholeExperiment.Sample	Trial	Audio.Trial.	Blocks	Blocks.Cycle	Blocks.Sample	Condition.Trial.	correct.Trial.	DecisionTime.Trial.	ec.Trial.	glb.Trial.	Item.Trial.	lc.Trial.	lit.Trial.	loc.Trial.	Picture.Trial.	PractiseList	PractiseList.Cycle	PractiseList.Sample	Procedure.Trial.	Running.Trial.	Sentence.Trial.	Slide1.OnsetTime.Trial.	Slide1.RESP.Trial.	Slide1.RT.Trial.	Slide1.SentenceRepititionCount1.Trial.	Slide2.OnsetTime.Trial.	Slide2.RESP.Trial.	Slide2.RT.Trial.	Slide2.SentenceRepititionCount1.Trial.	Slide3.OnsetTime.Trial.	Slide3.RESP.Trial.	Slide3.RT.Trial.	Slide3.SentenceRepititionCount1.Trial.	Slide4.OnsetTime.Trial.	Slide4.RESP.Trial.	Slide4.RT.Trial.	Slide4.SentenceRepititionCount1.Trial.	Slide5.NoMoreRepititionCount.Trial.	Slide5.OnsetTime.Trial.	Slide5.RESP.Trial.	Slide5.RT.Trial.	Slide5.SentenceRepititionCount.Trial.	Slide5.SentenceRepititionCount1.Trial.	Slide6.NoMoreRepititionCount.Trial.	Slide6.OnsetTime.Trial.	Slide6.RESP.Trial.	Slide6.RT.Trial.	Slide6.SentenceRepititionCount.Trial.	Slide6.SentenceRepititionCount1.Trial.	Slide7.NoMoreRepititionCount.Trial.	Slide7.OnsetTime.Trial.	Slide7.RESP.Trial.	Slide7.RT.Trial.	Slide7.SentenceRepititionCount1.Trial.	Total.CorrectResp.Trial.	SubTrial	Audio.SubTrial.	Block1List	Block1List.Cycle	Block1List.Sample	Block2List	Block2List.Cycle	Block2List.Sample	Condition.SubTrial.	correct.SubTrial.	DecisionTime.SubTrial.	ec.SubTrial.	glb.SubTrial.	Item.SubTrial.	lc.SubTrial.	lit.SubTrial.	loc.SubTrial.	Picture.SubTrial.	Procedure.SubTrial.	Running.SubTrial.	Sentence.SubTrial.	Slide1.OnsetTime.SubTrial.	Slide1.RESP.SubTrial.	Slide1.RT.SubTrial.	Slide1.SentenceRepititionCount1.SubTrial.	Slide2.OnsetTime.SubTrial.	Slide2.RESP.SubTrial.	Slide2.RT.SubTrial.	Slide2.SentenceRepititionCount1.SubTrial.	Slide3.OnsetTime.SubTrial.	Slide3.RESP.SubTrial.	Slide3.RT.SubTrial.	Slide3.SentenceRepititionCount1.SubTrial.	Slide4.OnsetTime.SubTrial.	Slide4.RESP.SubTrial.	Slide4.RT.SubTrial.	Slide4.SentenceRepititionCount1.SubTrial.	Slide5.NoMoreRepititionCount.SubTrial.	Slide5.OnsetTime.SubTrial.	Slide5.RESP.SubTrial.	Slide5.RT.SubTrial.	Slide5.SentenceRepititionCount.SubTrial.	Slide5.SentenceRepititionCount1.SubTrial.	Slide6.NoMoreRepititionCount.SubTrial.	Slide6.OnsetTime.SubTrial.	Slide6.RESP.SubTrial.	Slide6.RT.SubTrial.	Slide6.SentenceRepititionCount.SubTrial.	Slide6.SentenceRepititionCount1.SubTrial.	Slide7.NoMoreRepititionCount.SubTrial.	Slide7.OnsetTime.SubTrial.	Slide7.RESP.SubTrial.	Slide7.RT.SubTrial.	Slide7.SentenceRepititionCount1.SubTrial.	Total.CorrectResp.SubTrial.	Total.ECResp	Total.GLBResp	Total.LCResp	Total.LITResp	Total.LOCResp	responseexperiment_aud_3_1_1	17	17	<?xml version=1.0?>\n<Clock xmlns:dt=urn:schemas-microsoft-com:datatypes><Description dt:dt=string>E-Prime Primary Realtime Clock</Description><StartTime><Timestamp dt:dt=int>0</Timestamp><DateUtc dt:dt=string>2011-12-15T08:28:00Z</DateUtc></StartTime><FrequencyChanges><FrequencyChange><Frequency dt:dt=r8>2593230000</Frequency><Timestamp dt:dt=r8>3923494318198</Timestamp><Current dt:dt=r8>0</Current><DateUtc dt:dt=string>2011-12-15T08:28:00Z</DateUtc></FrequencyChange></FrequencyChanges></Clock>\n	15.12.11 9:28	85.032	1	-1593549955	12-15-2011	9:28:00	8:28:00	1	Practice	WholeExperiment	NA	1	1	1	1	wavs\01_a_rf_fff.wav	NA	NA	NA	a_rf_fff	-3	25269	0	0	1	0	0	0	pictures\rf_01	1	1	1	Uncover6	PractiseList	Jeder Brief ist mit der Hälfte seiner Kreise verbunden.	18253	k	3192	0	21475	k	1450	0	22979	j	2257	0	0	0	0	NA	NA	0	0	0	NA	NA	0	0	0	0	0	NA	NA	0		NA	NA	1	NA		NA	NA	NA	NA	NA	NA		NA	NA	NA	NA	NA	NA	NA	NA					NA		NA	NA	NA		NA	NA	NA		NA	NA	NA		NA	NA	NA	NA		NA	NA	NA	NA	NA		NA	NA	NA	NA	NA		NA	NA	NA	NA	NA	NA	NA	NA	0experiment_aud_3_1_1	17	17	<?xml version=1.0?>\n<Clock xmlns:dt=urn:schemas-microsoft-com:datatypes><Description dt:dt=string>E-Prime Primary Realtime Clock</Description><StartTime><Timestamp dt:dt=int>0</Timestamp><DateUtc dt:dt=string>2011-12-15T08:28:00Z</DateUtc></StartTime><FrequencyChanges><FrequencyChange><Frequency dt:dt=r8>2593230000</Frequency><Timestamp dt:dt=r8>3923494318198</Timestamp><Current dt:dt=r8>0</Current><DateUtc dt:dt=string>2011-12-15T08:28:00Z</DateUtc></FrequencyChange></FrequencyChanges></Clock>\n	15.12.11 9:28	85.032	1	-1593549955	12-15-2011	9:28:00	8:28:00	1	Practice	WholeExperiment	NA	1	1	1	2	wavs\08_a_rf_fff.wav	NA	NA	NA	a_rf_fff	-2	55379	0	0	8	0	0	0	pictures\rf_08	2	1	2	Uncover6	PractiseList	Kein Blitz ist mit einigen Dreiecken verbunden.	29161	k	7914	2	50484	k	2124	0	52644	f	2708	0	0	0	0	NA	NA	0	0	0	NA	NA	0	0	0	0	0	NA	NA	0		NA	NA	NA	NA		NA	NA	NA	NA	NA	NA		NA	NA	NA	NA	NA	NA	NA	NA					NA		NA	NA	NA		NA	NA	NA		NA	NA	NA		NA	NA	NA	NA		NA	NA	NA	NA	NA		NA	NA	NA	NA	NA		NA	NA	NA	NA	NA	NA	NA	NA	0experiment_aud_3_1_1	17	17	<?xml version=1.0?>\n<Clock xmlns:dt=urn:schemas-microsoft-com:datatypes><Description dt:dt=string>E-Prime Primary Realtime Clock</Description><StartTime><Timestamp dt:dt=int>0</Timestamp><DateUtc dt:dt=string>2011-12-15T08:28:00Z</DateUtc></StartTime><FrequencyChanges><FrequencyChange><Frequency dt:dt=r8>2593230000</Frequency><Timestamp dt:dt=r8>3923494318198</Timestamp><Current dt:dt=r8>0</Current><DateUtc dt:dt=string>2011-12-15T08:28:00Z</DateUtc></FrequencyChange></FrequencyChanges></Clock>\n	15.12.11 9:28	85.032	1	-1593549955	12-15-2011	9:28:00	8:28:00	1	Practice	WholeExperiment	NA	1	1	1	3	wavs\11_a_rf_fff.wav	NA	NA	NA	a_rf_fff	-6	81220	0	0	11	0	0	0	pictures\rf_11	3	1	3	Uncover6	PractiseList	Einige Stifte sind mit genau sechs Sechsecken verbunden.	59844	k	3055	0	62947	k	716	1	73204	k	1500	0	74738	k	1171	0	NA	75938	k	3267	NA	0	0	79234	j	1958	0	NA	NA	0		NA	NA	NA	NA		NA	NA	NA	NA	NA	NA		NA	NA	NA	NA	NA	NA	NA	NA					NA		NA	NA	NA		NA	NA	NA		NA	NA	NA		NA	NA	NA	NA		NA	NA	NA	NA	NA		NA	NA	NA	NA	NA		NA	NA	NA	NA	NA	NA	NA	NA	0experiment_aud_3_1_1	17	17	<?xml version=1.0?>\n<Clock xmlns:dt=urn:schemas-microsoft-com:datatypes><Description dt:dt=string>E-Prime Primary Realtime Clock</Description><StartTime><Timestamp dt:dt=int>0</Timestamp><DateUtc dt:dt=string>2011-12-15T08:28:00Z</DateUtc></StartTime><FrequencyChanges><FrequencyChange><Frequency dt:dt=r8>2593230000</Frequency><Timestamp dt:dt=r8>3923494318198</Timestamp><Current dt:dt=r8>0</Current><DateUtc dt:dt=string>2011-12-15T08:28:00Z</DateUtc></FrequencyChange></FrequencyChanges></Clock>\n	15.12.11 9:28	85.032	1	-1593549955	12-15-2011	9:28:00	8:28:00	1	Practice	WholeExperiment	NA	1	1	1	4	wavs\16_a_rf_fff.wav	NA	NA	NA	a_rf_fff	-6	97987	0	0	16	0	0	0	pictures\rf_16	4	1	4	Uncover6	PractiseList	Die Hälfte der Scheren hat mehr als vier Verbindungen.	84931	k	2898	0	87875	k	3274	0	91202	k	1281	0	92514	k	940	0	NA	93490	f	4460	NA	0	0	0	0	0	0	NA	NA	0		NA	NA	NA	NA		NA	NA	NA	NA	NA	NA		NA	NA	NA	NA	NA	NA	NA	NA					NA		NA	NA	NA		NA	NA	NA		NA	NA	NA		NA	NA	NA	NA		NA	NA	NA	NA	NA		NA	NA	NA	NA	NA		NA	NA	NA	NA	NA	NA	NA	NA	0experiment_aud_3_1_1	17	17	<?xml version=1.0?>\n<Clock xmlns:dt=urn:schemas-microsoft-com:datatypes><Description dt:dt=string>E-Prime Primary Realtime Clock</Description><StartTime><Timestamp dt:dt=int>0</Timestamp><DateUtc dt:dt=string>2011-12-15T08:28:00Z</DateUtc></StartTime><FrequencyChanges><FrequencyChange><Frequency dt:dt=r8>2593230000</Frequency><Timestamp dt:dt=r8>3923494318198</Timestamp><Current dt:dt=r8>0</Current><DateUtc dt:dt=string>2011-12-15T08:28:00Z</DateUtc></FrequencyChange></FrequencyChanges></Clock>\n	15.12.11 9:28	85.032	1	-1593549955	12-15-2011	9:28:00	8:28:00	1	Practice	WholeExperiment	NA	1	1	1	5	wavs\21_a_rf_fff.wav	NA	NA	NA	a_rf_fff	-3	107123	0	0	21	0	0	0	pictures\rf_21	5	1	5	Uncover5	PractiseList	Die Hälfte der Briefe ist mit genau zwei ihrer Fünfecke verbunden.	102742	j	4329	0	0	0	0	NA	0	0	0	NA	0	0	0	NA	0	0	0	0	0	NA	NA	0		NA	NA	NA	NA	0		NA	NA	NA	NA		NA	NA	NA	NA	NA	NA		NA	NA	NA	NA	NA	NA	NA	NA					NA		NA	NA	NA		NA	NA	NA		NA	NA	NA		NA	NA	NA	NA		NA	NA	NA	NA	NA		NA	NA	NA	NA	NA		NA	NA	NA	NA	NA	NA	NA	NA	0experiment_aud_3_1_1	17	17	<?xml version=1.0?>\n<Clock xmlns:dt=urn:schemas-microsoft-com:datatypes><Description dt:dt=string>E-Prime Primary Realtime Clock</Description><StartTime><Timestamp dt:dt=int>0</Timestamp><DateUtc dt:dt=string>2011-12-15T08:28:00Z</DateUtc></StartTime><FrequencyChanges><FrequencyChange><Frequency dt:dt=r8>2593230000</Frequency><Timestamp dt:dt=r8>3923494318198</Timestamp><Current dt:dt=r8>0</Current><DateUtc dt:dt=string>2011-12-15T08:28:00Z</DateUtc></FrequencyChange></FrequencyChanges></Clock>\n	15.12.11 9:28	85.032	1	-1593549955	12-15-2011	9:28:00	8:28:00	1	Practice	WholeExperiment	NA	1	1	1	6	wavs\25_a_rf_fff.wav	NA	NA	NA	a_rf_fff	1	122211	0	0	25	0	0	0	pictures\rf_25	6	1	6	Uncover7	PractiseList	Alle Stifte, die mit einem Quadrat verbunden sind, sind grün.	111687	k	3787	0	115507	k	1069	0	116610	k	988	0	117634	k	988	0	NA	118658	k	989	NA	0	NA	119682	k	830	NA	0	0	120546	j	1636	0	NA	NA		NA	NA	NA	NA	NA	NA		NA	NA	NA	NA	NA	NA	NA	NA					NA		NA	NA	NA		NA	NA	NA		NA	NA	NA		NA	NA	NA	NA		NA	NA	NA	NA	NA		NA	NA	NA	NA	NA		NA	NA	NA	NA	NA	NA	NA	NA	0experiment_aud_3_1_1	17	17	<?xml version=1.0?>\n<Clock xmlns:dt=urn:schemas-microsoft-com:datatypes><Description dt:dt=string>E-Prime Primary Realtime Clock</Description><StartTime><Timestamp dt:dt=int>0</Timestamp><DateUtc dt:dt=string>2011-12-15T08:28:00Z</DateUtc></StartTime><FrequencyChanges><FrequencyChange><Frequency dt:dt=r8>2593230000</Frequency><Timestamp dt:dt=r8>3923494318198</Timestamp><Current dt:dt=r8>0</Current><DateUtc dt:dt=string>2011-12-15T08:28:00Z</DateUtc></FrequencyChange></FrequencyChanges></Clock>\n	15.12.11 9:28	85.032	1	-1593549955	12-15-2011	9:28:00	8:28:00	1	Practice	WholeExperiment	NA	1	1	1	7	wavs\26_a_rf_fff.wav	NA	NA	NA	a_rf_fff	7	138227	0	0	26	0	0	0	pictures\rf_26	7	1	7	Uncover7	PractiseList	Alle Glocken, die mit einem Achteck verbunden sind, sind rot.	126807	k	3372	0	130227	k	757	0	131010	k	1249	0	132290	k	639	0	NA	132962	k	1457	NA	0	NA	134450	k	859	NA	0	0	135345	f	2846	0	1	NA		NA	NA	NA	NA	NA	NA		NA	NA	NA	NA	NA	NA	NA	NA					NA		NA	NA	NA		NA	NA	NA		NA	NA	NA		NA	NA	NA	NA		NA	NA	NA	NA	NA		NA	NA	NA	NA	NA		NA	NA	NA	NA	NA	NA	NA	NA	0experiment_aud_3_1_1	17	17	<?xml version=1.0?>\n<Clock xmlns:dt=urn:schemas-microsoft-com:datatypes><Description dt:dt=string>E-Prime Primary Realtime Clock</Description><StartTime><Timestamp dt:dt=int>0</Timestamp><DateUtc dt:dt=string>2011-12-15T08:28:00Z</DateUtc></StartTime><FrequencyChanges><FrequencyChange><Frequency dt:dt=r8>2593230000</Frequency><Timestamp dt:dt=r8>3923494318198</Timestamp><Current dt:dt=r8>0</Current><DateUtc dt:dt=string>2011-12-15T08:28:00Z</DateUtc></FrequencyChange></FrequencyChanges></Clock>\n	15.12.11 9:28	85.032	1	-1593549955	12-15-2011	9:28:00	8:28:00	1	Practice	WholeExperiment	NA	1	1	1	8	wavs\28_a_rf_fff.wav	NA	NA	NA	a_rf_fff	1	160387	0	0	28	0	0	0	pictures\rf_28	8	1	8	Uncover6	PractiseList	Kein Brief, der unverbunden ist, ist rot.	141786	k	5069	0	146882	k	1421	0	148337	k	7314	0	155714	j	4636	0	NA	0	0	0	NA	NA	0	0	0	0	0	NA	NA	0		NA	NA	NA	NA		NA	NA	NA	NA	NA	NA		NA	NA	NA	NA	NA	NA	NA	NA					NA		NA	NA	NA		NA	NA	NA		NA	NA	NA		NA	NA	NA	NA		NA	NA	NA	NA	NA		NA	NA	NA	NA	NA		NA	NA	NA	NA	NA	NA	NA	NA	0experiment_aud_3_1_1	17	17	<?xml version=1.0?>\n<Clock xmlns:dt=urn:schemas-microsoft-com:datatypes><Description dt:dt=string>E-Prime Primary Realtime Clock</Description><StartTime><Timestamp dt:dt=int>0</Timestamp><DateUtc dt:dt=string>2011-12-15T08:28:00Z</DateUtc></StartTime><FrequencyChanges><FrequencyChange><Frequency dt:dt=r8>2593230000</Frequency><Timestamp dt:dt=r8>3923494318198</Timestamp><Current dt:dt=r8>0</Current><DateUtc dt:dt=string>2011-12-15T08:28:00Z</DateUtc></FrequencyChange></FrequencyChanges></Clock>\n	15.12.11 9:28	85.032	1	-1593549955	12-15-2011	9:28:00	8:28:00	2	Experiment	WholeExperiment	NA	2	1	2	1		1	1	1		NA	NA	NA	NA	NA	NA	NA	NA		NA	NA	NA	Block1	Blocks		NA		NA	NA	NA		NA	NA	NA		NA	NA	NA		NA	NA	NA	NA		NA	NA	NA	NA	NA		NA	NA	NA	NA	NA		NA	NA	NA	1	wavs\01_a_tf_axe.wav	27	1	1	NA	NA	NA	a_tf_aee	0	184386	-3	0	1	5	0	0	pictures\ec_01	Uncover5	Block1List	Der Brief ist mit Kreisen und Vierecken mit Sonnen verbunden.	168134	k	4527	1	178882	k	620	0	179537	j	4821	0	0	0	0	NA	0	0	0	0	0	NA	NA	0		NA	NA	NA	NA	0		NA	NA	NA	1	NA	NA	NA	NA	-3experiment_aud_3_1_1	17	17	<?xml version=1.0?>\n<Clock xmlns:dt=urn:schemas-microsoft-com:datatypes><Description dt:dt=string>E-Prime Primary Realtime Clock</Description><StartTime><Timestamp dt:dt=int>0</Timestamp><DateUtc dt:dt=string>2011-12-15T08:28:00Z</DateUtc></StartTime><FrequencyChanges><FrequencyChange><Frequency dt:dt=r8>2593230000</Frequency><Timestamp dt:dt=r8>3923494318198</Timestamp><Current dt:dt=r8>0</Current><DateUtc dt:dt=string>2011-12-15T08:28:00Z</DateUtc></FrequencyChange></FrequencyChanges></Clock>\n	15.12.11 9:28	85.032	1	-1593549955	12-15-2011	9:28:00	8:28:00	2	Experiment	WholeExperiment	NA	2	1	2	1		1	1	1		NA	NA	NA	NA	NA	NA	NA	NA		NA	NA	NA	Block1	Blocks		NA		NA	NA	NA		NA	NA	NA		NA	NA	NA		NA	NA	NA	NA		NA	NA	NA	NA	NA		NA	NA	NA	NA	NA		NA	NA	NA	2	wavs\13_a_ge_akz.wav	13	1	2	NA	NA	NA	a_ge_akz	0	192995	0	-2	13	0	-3	5	pictures\ge_13	Uncover5	Block1List	Genau eine der Scheren ist mit nur einigen ihrer Fünfecke verbunden.	189180	k	1170	0	190401	f	2563	0	0	0	0	NA	0	0	0	NA	0	0	0	0	0	NA	NA	0		NA	NA	NA	NA	0		NA	NA	NA	NA	NA	NA	NA	NA	2experiment_aud_3_1_1	17	17	<?xml version=1.0?>\n<Clock xmlns:dt=urn:schemas-microsoft-com:datatypes><Description dt:dt=string>E-Prime Primary Realtime Clock</Description><StartTime><Timestamp dt:dt=int>0</Timestamp><DateUtc dt:dt=string>2011-12-15T08:28:00Z</DateUtc></StartTime><FrequencyChanges><FrequencyChange><Frequency dt:dt=r8>2593230000</Frequency><Timestamp dt:dt=r8>3923494318198</Timestamp><Current dt:dt=r8>0</Current><DateUtc dt:dt=string>2011-12-15T08:28:00Z</DateUtc></FrequencyChange></FrequencyChanges></Clock>\n	15.12.11 9:28	85.032	1	-1593549955	12-15-2011	9:28:00	8:28:00	2	Experiment	WholeExperiment	NA	2	1	2	1		1	1	1		NA	NA	NA	NA	NA	NA	NA	NA		NA	NA	NA	Block1	Blocks		NA		NA	NA	NA		NA	NA	NA		NA	NA	NA		NA	NA	NA	NA		NA	NA	NA	NA	NA		NA	NA	NA	NA	NA		NA	NA	NA	3	wavs\06_a_rf_fff.wav	18	1	3	NA	NA	NA	a_rf_fff	4	203297	0	0	6	0	0	0	pictures\rf_06	Uncover6	Block1List	Jeder Würfel hat Verbindungen.	196461	k	2563	0	199074	k	860	0	199968	k	1054	0	201056	f	2212	0	NA	0	0	0	NA	NA	0	0	0	0	0	NA	NA	0		NA	NA	1	NA	NA	NA	NA	NA	4experiment_aud_3_1_1	17	17	<?xml version=1.0?>\n<Clock xmlns:dt=urn:schemas-microsoft-com:datatypes><Description dt:dt=string>E-Prime Primary Realtime Clock</Description><StartTime><Timestamp dt:dt=int>0</Timestamp><DateUtc dt:dt=string>2011-12-15T08:28:00Z</DateUtc></StartTime><FrequencyChanges><FrequencyChange><Frequency dt:dt=r8>2593230000</Frequency><Timestamp dt:dt=r8>3923494318198</Timestamp><Current dt:dt=r8>0</Current><DateUtc dt:dt=string>2011-12-15T08:28:00Z</DateUtc></FrequencyChange></FrequencyChanges></Clock>\n	15.12.11 9:28	85.032	1	-1593549955	12-15-2011	9:28:00	8:28:00	2	Experiment	WholeExperiment	NA	2	1	2	1		1	1	1		NA	NA	NA	NA	NA	NA	NA	NA		NA	NA	NA	Block1	Blocks		NA		NA	NA	NA		NA	NA	NA		NA	NA	NA		NA	NA	NA	NA		NA	NA	NA	NA	NA		NA	NA	NA	NA	NA		NA	NA	NA	4	wavs\12_a_rf_fff.wav	20	1	4	NA	NA	NA	a_rf_fff	3	211936	0	0	12	0	0	0	pictures\rf_12	Uncover6	Block1List	Einige Briefe sind mit genau sechs Quadraten verbunden.	207912	k	1072	0	209024	k	510	0	209568	f	2337	0	0	0	0	NA	NA	0	0	0	NA	NA	0	0	0	0	0	NA	NA	0		NA	NA	1	NA	NA	NA	NA	NA	3experiment_aud_3_1_1	17	17	<?xml version=1.0?>\n<Clock xmlns:dt=urn:schemas-microsoft-com:datatypes><Description dt:dt=string>E-Prime Primary Realtime Clock</Description><StartTime><Timestamp dt:dt=int>0</Timestamp><DateUtc dt:dt=string>2011-12-15T08:28:00Z</DateUtc></StartTime><FrequencyChanges><FrequencyChange><Frequency dt:dt=r8>2593230000</Frequency><Timestamp dt:dt=r8>3923494318198</Timestamp><Current dt:dt=r8>0</Current><DateUtc dt:dt=string>2011-12-15T08:28:00Z</DateUtc></FrequencyChange></FrequencyChanges></Clock>\n	15.12.11 9:28	85.032	1	-1593549955	12-15-2011	9:28:00	8:28:00	2	Experiment	WholeExperiment	NA	2	1	2	1		1	1	1		NA	NA	NA	NA	NA	NA	NA	NA		NA	NA	NA	Block1	Blocks		NA		NA	NA	NA		NA	NA	NA		NA	NA	NA		NA	NA	NA	NA		NA	NA	NA	NA	NA		NA	NA	NA	NA	NA		NA	NA	NA	5	wavs\25_a_tf_dxx.wav	39	1	5	NA	NA	NA	a_tf_dlc	3	228098	0	0	25	0	0	0	pictures\lc_25	Uncover7	Block1List	Die Uhr ist mit Sechsecken, die Blitzen beinhalten, und Kreisen verbunden.	217329	k	4483	0	221857	k	527	0	222416	k	3515	0	225968	f	2091	0	NA	0	0	0	NA	NA	NA	0	0	0	NA	NA	0	0	0	0	NA	NA	NA	NA	NA	NA	NA	4experiment_aud_3_1_1	17	17	<?xml version=1.0?>\n<Clock xmlns:dt=urn:schemas-microsoft-com:datatypes><Description dt:dt=string>E-Prime Primary Realtime Clock</Description><StartTime><Timestamp dt:dt=int>0</Timestamp><DateUtc dt:dt=string>2011-12-15T08:28:00Z</DateUtc></StartTime><FrequencyChanges><FrequencyChange><Frequency dt:dt=r8>2593230000</Frequency><Timestamp dt:dt=r8>3923494318198</Timestamp><Current dt:dt=r8>0</Current><DateUtc dt:dt=string>2011-12-15T08:28:00Z</DateUtc></FrequencyChange></FrequencyChanges></Clock>\n	15.12.11 9:28	85.032	1	-1593549955	12-15-2011	9:28:00	8:28:00	2	Experiment	WholeExperiment	NA	2	1	2	1		1	1	1		NA	NA	NA	NA	NA	NA	NA	NA		NA	NA	NA	Block1	Blocks		NA		NA	NA	NA		NA	NA	NA		NA	NA	NA		NA	NA	NA	NA		NA	NA	NA	NA	NA		NA	NA	NA	NA	NA		NA	NA	NA	6	wavs\07_a_ca_loc.wav	7	1	6	NA	NA	NA	a_ca_loc	-7	243121	0	0	7	0	0	0	pictures\ae_07	Uncover7	Block1List	Jeder Brief ist mit mindestens vier seiner Quadrate verbunden.	232591	k	1694	0	234321	k	1037	0	235392	k	1060	0	236496	k	926	0	NA	237456	k	1577	NA	0	NA	239072	k	1443	NA	0	0	240560	j	2509	0	1	NA	NA	NA	NA	NA	-7experiment_aud_3_1_1	17	17	<?xml version=1.0?>\n<Clock xmlns:dt=urn:schemas-microsoft-com:datatypes><Description dt:dt=string>E-Prime Primary Realtime Clock</Description><StartTime><Timestamp dt:dt=int>0</Timestamp><DateUtc dt:dt=string>2011-12-15T08:28:00Z</DateUtc></StartTime><FrequencyChanges><FrequencyChange><Frequency dt:dt=r8>2593230000</Frequency><Timestamp dt:dt=r8>3923494318198</Timestamp><Current dt:dt=r8>0</Current><DateUtc dt:dt=string>2011-12-15T08:28:00Z</DateUtc></FrequencyChange></FrequencyChanges></Clock>\n	15.12.11 9:28	85.032	1	-1593549955	12-15-2011	9:28:00	8:28:00	2	Experiment	WholeExperiment	NA	2	1	2	1		1	1	1		NA	NA	NA	NA	NA	NA	NA	NA		NA	NA	NA	Block1	Blocks		NA		NA	NA	NA		NA	NA	NA		NA	NA	NA		NA	NA	NA	NA		NA	NA	NA	NA	NA		NA	NA	NA	NA	NA		NA	NA	NA	7	wavs\11_a_ge_ntr.wav	15	1	7	NA	NA	NA	a_ge_ntr	0	251856	0	-2	11	0	-3	5	pictures\ge_11	Uncover5	Block1List	Genau einer der Stifte ist mit einigen seiner Halbkreise verbunden.	247727	k	959	0	248721	k	2211	0	250960	f	861	0	0	0	0	NA	0	0	0	0	0	NA	NA	0		NA	NA	NA	NA	0		NA	NA	NA	NA	NA	NA	NA	NA	3experiment_aud_3_1_1	17	17	<?xml version=1.0?>\n<Clock xmlns:dt=urn:schemas-microsoft-com:datatypes><Description dt:dt=string>E-Prime Primary Realtime Clock</Description><StartTime><Timestamp dt:dt=int>0</Timestamp><DateUtc dt:dt=string>2011-12-15T08:28:00Z</DateUtc></StartTime><FrequencyChanges><FrequencyChange><Frequency dt:dt=r8>2593230000</Frequency><Timestamp dt:dt=r8>3923494318198</Timestamp><Current dt:dt=r8>0</Current><DateUtc dt:dt=string>2011-12-15T08:28:00Z</DateUtc></FrequencyChange></FrequencyChanges></Clock>\n	15.12.11 9:28	85.032	1	-1593549955	12-15-2011	9:28:00	8:28:00	2	Experiment	WholeExperiment	NA	2	1	2	1		1	1	1		NA	NA	NA	NA	NA	NA	NA	NA		NA	NA	NA	Block1	Blocks		NA		NA	NA	NA		NA	NA	NA		NA	NA	NA		NA	NA	NA	NA		NA	NA	NA	NA	NA		NA	NA	NA	NA	NA		NA	NA	NA	8	wavs\05_a_tf_axl.wav	29	1	8	NA	NA	NA	a_tf_ael	0	265600	-3	0	5	5	0	0	pictures\ec_05	Uncover5	Block1List	Der Brief ist mit Sechsecken und Halbkreisen mit Monden verbunden.	257354	k	4623	0	262017	k	622	0	262671	j	2903	0	0	0	0	NA	0	0	0	0	0	NA	NA	0		NA	NA	NA	NA	0		NA	NA	NA	1	NA	NA	NA	NA	-3experiment_aud_3_1_1	17	17	<?xml version=1.0?>\n<Clock xmlns:dt=urn:schemas-microsoft-com:datatypes><Description dt:dt=string>E-Prime Primary Realtime Clock</Description><StartTime><Timestamp dt:dt=int>0</Timestamp><DateUtc dt:dt=string>2011-12-15T08:28:00Z</DateUtc></StartTime><FrequencyChanges><FrequencyChange><Frequency dt:dt=r8>2593230000</Frequency><Timestamp dt:dt=r8>3923494318198</Timestamp><Current dt:dt=r8>0</Current><DateUtc dt:dt=string>2011-12-15T08:28:00Z</DateUtc></FrequencyChange></FrequencyChanges></Clock>\n	15.12.11 9:28	85.032	1	-1593549955	12-15-2011	9:28:00	8:28:00	2	Experiment	WholeExperiment	NA	2	1	2	1		1	1	1		NA	NA	NA	NA	NA	NA	NA	NA		NA	NA	NA	Block1	Blocks		NA		NA	NA	NA		NA	NA	NA		NA	NA	NA		NA	NA	NA	NA		NA	NA	NA	NA	NA		NA	NA	NA	NA	NA		NA	NA	NA	9	wavs\01_a_ca_glb.wav	4	1	9	NA	NA	NA	a_ca_glb	5	277361	0	0	1	0	0	0	pictures\ae_01	Uncover7	Block1List	Mindestens ein Brief ist mit genau fünf seiner Dreiecke verbunden.	270370	k	2492	0	272927	k	540	0	273503	k	880	0	274431	k	1162	0	NA	275631	f	1691	NA	0	NA	0	0	0	NA	NA	0	0	0	0	NA	1	NA	NA	NA	NA	NA	5experiment_aud_3_1_1	17	17	<?xml version=1.0?>\n<Clock xmlns:dt=urn:schemas-microsoft-com:datatypes><Description dt:dt=string>E-Prime Primary Realtime Clock</Description><StartTime><Timestamp dt:dt=int>0</Timestamp><DateUtc dt:dt=string>2011-12-15T08:28:00Z</DateUtc></StartTime><FrequencyChanges><FrequencyChange><Frequency dt:dt=r8>2593230000</Frequency><Timestamp dt:dt=r8>3923494318198</Timestamp><Current dt:dt=r8>0</Current><DateUtc dt:dt=string>2011-12-15T08:28:00Z</DateUtc></FrequencyChange></FrequencyChanges></Clock>\n	15.12.11 9:28	85.032	1	-1593549955	12-15-2011	9:28:00	8:28:00	2	Experiment	WholeExperiment	NA	2	1	2	1		1	1	1		NA	NA	NA	NA	NA	NA	NA	NA		NA	NA	NA	Block1	Blocks		NA		NA	NA	NA		NA	NA	NA		NA	NA	NA		NA	NA	NA	NA		NA	NA	NA	NA	NA		NA	NA	NA	NA	NA		NA	NA	NA	10	wavs\19_a_tf_axl.wav	34	1	10	NA	NA	NA	a_tf_all	5	290337	0	0	19	0	0	0	pictures\lc_19	Uncover7	Block1List	Die Glocke ist mit Kreisen und Vierecken mit Blumen verbunden.	282798	k	2809	0	285664	k	347	0	286047	k	1491	0	287567	k	566	0	NA	288159	k	526	NA	0	NA	288719	j	1589	NA	0	0	0	0	0	NA	NA	NA	NA	NA	NA	NA	-6experiment_aud_3_1_1	17	17	<?xml version=1.0?>\n<Clock xmlns:dt=urn:schemas-microsoft-com:datatypes><Description dt:dt=string>E-Prime Primary Realtime Clock</Description><StartTime><Timestamp dt:dt=int>0</Timestamp><DateUtc dt:dt=string>2011-12-15T08:28:00Z</DateUtc></StartTime><FrequencyChanges><FrequencyChange><Frequency dt:dt=r8>2593230000</Frequency><Timestamp dt:dt=r8>3923494318198</Timestamp><Current dt:dt=r8>0</Current><DateUtc dt:dt=string>2011-12-15T08:28:00Z</DateUtc></FrequencyChange></FrequencyChanges></Clock>\n	15.12.11 9:28	85.032	1	-1593549955	12-15-2011	9:28:00	8:28:00	2	Experiment	WholeExperiment	NA	2	1	2	1		1	1	1		NA	NA	NA	NA	NA	NA	NA	NA		NA	NA	NA	Block1	Blocks		NA		NA	NA	NA		NA	NA	NA		NA	NA	NA		NA	NA	NA	NA		NA	NA	NA	NA	NA		NA	NA	NA	NA	NA		NA	NA	NA	11	wavs\05_a_ca_lit.wav	6	1	11	NA	NA	NA	a_ca_lit	3	303280	0	0	5	0	0	0	pictures\ae_05	Uncover7	Block1List	Alle Scheren sind mit mindestens drei ihrer Halbkreise verbunden.	295645	k	4031	0	299728	k	510	0	300287	k	1233	0	301551	f	1703	0	NA	0	0	0	NA	NA	NA	0	0	0	NA	NA	0	0	0	0	NA	NA	NA	NA	NA	NA	NA	4experiment_aud_3_1_1	17	17	<?xml version=1.0?>\n<Clock xmlns:dt=urn:schemas-microsoft-com:datatypes><Description dt:dt=string>E-Prime Primary Realtime Clock</Description><StartTime><Timestamp dt:dt=int>0</Timestamp><DateUtc dt:dt=string>2011-12-15T08:28:00Z</DateUtc></StartTime><FrequencyChanges><FrequencyChange><Frequency dt:dt=r8>2593230000</Frequency><Timestamp dt:dt=r8>3923494318198</Timestamp><Current dt:dt=r8>0</Current><DateUtc dt:dt=string>2011-12-15T08:28:00Z</DateUtc></FrequencyChange></FrequencyChanges></Clock>\n	15.12.11 9:28	85.032	1	-1593549955	12-15-2011	9:28:00	8:28:00	2	Experiment	WholeExperiment	NA	2	1	2	1		1	1	1		NA	NA	NA	NA	NA	NA	NA	NA		NA	NA	NA	Block1	Blocks		NA		NA	NA	NA		NA	NA	NA		NA	NA	NA		NA	NA	NA	NA		NA	NA	NA	NA	NA		NA	NA	NA	NA	NA		NA	NA	NA	12	wavs\07_a_tf_axl.wav	30	1	12	NA	NA	NA	a_tf_ael	0	315135	-3	0	7	5	0	0	pictures\ec_07	Uncover5	Block1List	Die Schere ist mit Kreisen und Sechsecken mit Herzen verbunden.	308510	k	1661	0	310222	k	592	0	310847	k	1457	0	312336	k	555	0	0	312926	f	2175	0	NA	NA	0		NA	NA	NA	NA	0		NA	NA	NA	NA	NA	NA	NA	NA	5experiment_aud_3_1_1	17	17	<?xml version=1.0?>\n<Clock xmlns:dt=urn:schemas-microsoft-com:datatypes><Description dt:dt=string>E-Prime Primary Realtime Clock</Description><StartTime><Timestamp dt:dt=int>0</Timestamp><DateUtc dt:dt=string>2011-12-15T08:28:00Z</DateUtc></StartTime><FrequencyChanges><FrequencyChange><Frequency dt:dt=r8>2593230000</Frequency><Timestamp dt:dt=r8>3923494318198</Timestamp><Current dt:dt=r8>0</Current><DateUtc dt:dt=string>2011-12-15T08:28:00Z</DateUtc></FrequencyChange></FrequencyChanges></Clock>\n	15.12.11 9:28	85.032	1	-1593549955	12-15-2011	9:28:00	8:28:00	2	Experiment	WholeExperiment	NA	2	1	2	1		1	1	1		NA	NA	NA	NA	NA	NA	NA	NA		NA	NA	NA	Block1	Blocks		NA		NA	NA	NA		NA	NA	NA		NA	NA	NA		NA	NA	NA	NA		NA	NA	NA	NA	NA		NA	NA	NA	NA	NA		NA	NA	NA	13	wavs\13_a_ae_akz.wav	1	1	13	NA	NA	NA	a_ae_akz	0	323343	0	5	13	0	3	-7	pictures\ae_13	Uncover7	Block1List	Alle diese Briefe sind mit nur einigen ihrer Kreise verbunden.	319624	k	991	0	320654	k	465	0	321150	f	2163	0	0	0	0	NA	NA	0	0	0	NA	NA	NA	0	0	0	NA	NA	0	0	0	0	NA	NA	NA	NA	NA	1	NA	3experiment_aud_3_1_1	17	17	<?xml version=1.0?>\n<Clock xmlns:dt=urn:schemas-microsoft-com:datatypes><Description dt:dt=string>E-Prime Primary Realtime Clock</Description><StartTime><Timestamp dt:dt=int>0</Timestamp><DateUtc dt:dt=string>2011-12-15T08:28:00Z</DateUtc></StartTime><FrequencyChanges><FrequencyChange><Frequency dt:dt=r8>2593230000</Frequency><Timestamp dt:dt=r8>3923494318198</Timestamp><Current dt:dt=r8>0</Current><DateUtc dt:dt=string>2011-12-15T08:28:00Z</DateUtc></FrequencyChange></FrequencyChanges></Clock>\n	15.12.11 9:28	85.032	1	-1593549955	12-15-2011	9:28:00	8:28:00	2	Experiment	WholeExperiment	NA	2	1	2	1		1	1	1		NA	NA	NA	NA	NA	NA	NA	NA		NA	NA	NA	Block1	Blocks		NA		NA	NA	NA		NA	NA	NA		NA	NA	NA		NA	NA	NA	NA		NA	NA	NA	NA	NA		NA	NA	NA	NA	NA		NA	NA	NA	14	wavs\03_a_tf_axe.wav	28	1	14	NA	NA	NA	a_tf_aee	0	335632	-3	0	3	5	0	0	pictures\ec_03	Uncover5	Block1List	Der Brief ist mit Dreiecken und Achtecken mit Blitzen verbunden.	328624	j	6958	0	0	0	0	NA	0	0	0	NA	0	0	0	NA	0	0	0	0	0	NA	NA	0		NA	NA	NA	NA	0		NA	NA	NA	NA	NA	NA	NA	NA	-1experiment_aud_3_1_1	17	17	<?xml version=1.0?>\n<Clock xmlns:dt=urn:schemas-microsoft-com:datatypes><Description dt:dt=string>E-Prime Primary Realtime Clock</Description><StartTime><Timestamp dt:dt=int>0</Timestamp><DateUtc dt:dt=string>2011-12-15T08:28:00Z</DateUtc></StartTime><FrequencyChanges><FrequencyChange><Frequency dt:dt=r8>2593230000</Frequency><Timestamp dt:dt=r8>3923494318198</Timestamp><Current dt:dt=r8>0</Current><DateUtc dt:dt=string>2011-12-15T08:28:00Z</DateUtc></FrequencyChange></FrequencyChanges></Clock>\n	15.12.11 9:28	85.032	1	-1593549955	12-15-2011	9:28:00	8:28:00	2	Experiment	WholeExperiment	NA	2	1	2	1		1	1	1		NA	NA	NA	NA	NA	NA	NA	NA		NA	NA	NA	Block1	Blocks		NA		NA	NA	NA		NA	NA	NA		NA	NA	NA		NA	NA	NA	NA		NA	NA	NA	NA	NA		NA	NA	NA	NA	NA		NA	NA	NA	15	wavs\23_a_tf_axn.wav	36	1	15	NA	NA	NA	a_tf_aln	3	354224	0	0	23	0	0	0	pictures\lc_23	Uncover7	Block1List	Die Glocke ist mit Sechsecken und Halbkreisen mit Sternen verbunden.	340901	k	313	1	349918	k	420	0	350366	f	3829	0	0	0	0	NA	NA	0	0	0	NA	NA	NA	0	0	0	NA	NA	0	0	0	0	NA	1	NA	NA	NA	NA	NA	3experiment_aud_3_1_1	17	17	<?xml version=1.0?>\n<Clock xmlns:dt=urn:schemas-microsoft-com:datatypes><Description dt:dt=string>E-Prime Primary Realtime Clock</Description><StartTime><Timestamp dt:dt=int>0</Timestamp><DateUtc dt:dt=string>2011-12-15T08:28:00Z</DateUtc></StartTime><FrequencyChanges><FrequencyChange><Frequency dt:dt=r8>2593230000</Frequency><Timestamp dt:dt=r8>3923494318198</Timestamp><Current dt:dt=r8>0</Current><DateUtc dt:dt=string>2011-12-15T08:28:00Z</DateUtc></FrequencyChange></FrequencyChanges></Clock>\n	15.12.11 9:28	85.032	1	-1593549955	12-15-2011	9:28:00	8:28:00	2	Experiment	WholeExperiment	NA	2	1	2	1		1	1	1		NA	NA	NA	NA	NA	NA	NA	NA		NA	NA	NA	Block1	Blocks		NA		NA	NA	NA		NA	NA	NA		NA	NA	NA		NA	NA	NA	NA		NA	NA	NA	NA	NA		NA	NA	NA	NA	NA		NA	NA	NA	16	wavs\11_a_ae_ntr.wav	3	1	16	NA	NA	NA	a_ae_ntr	0	362126	0	5	11	0	3	-7	pictures\ae_11	Uncover7	Block1List	Alle diese Scheren sind mit einigen ihrer Quadrate verbunden.	358822	k	678	0	359550	k	933	0	360511	f	1584	0	0	0	0	NA	NA	0	0	0	NA	NA	NA	0	0	0	NA	NA	0	0	0	0	NA	NA	NA	NA	NA	1	NA	3experiment_aud_3_1_1	17	17	<?xml version=1.0?>\n<Clock xmlns:dt=urn:schemas-microsoft-com:datatypes><Description dt:dt=string>E-Prime Primary Realtime Clock</Description><StartTime><Timestamp dt:dt=int>0</Timestamp><DateUtc dt:dt=string>2011-12-15T08:28:00Z</DateUtc></StartTime><FrequencyChanges><FrequencyChange><Frequency dt:dt=r8>2593230000</Frequency><Timestamp dt:dt=r8>3923494318198</Timestamp><Current dt:dt=r8>0</Current><DateUtc dt:dt=string>2011-12-15T08:28:00Z</DateUtc></FrequencyChange></FrequencyChanges></Clock>\n	15.12.11 9:28	85.032	1	-1593549955	12-15-2011	9:28:00	8:28:00	2	Experiment	WholeExperiment	NA	2	1	2	1		1	1	1		NA	NA	NA	NA	NA	NA	NA	NA		NA	NA	NA	Block1	Blocks		NA		NA	NA	NA		NA	NA	NA		NA	NA	NA		NA	NA	NA	NA		NA	NA	NA	NA	NA		NA	NA	NA	NA	NA		NA	NA	NA	17	wavs\17_a_rf_fff.wav	22	1	17	NA	NA	NA	a_rf_fff	-6	376270	0	0	17	0	0	0	pictures\rf_17	Uncover6	Block1List	Die Hälfte der Uhren hat mehr als vier Verbindungen.	365466	k	2386	0	367903	k	575	0	368526	k	876	0	369438	k	1506	0	NA	370973	k	3678	NA	0	0	374687	j	1557	0	NA	NA	0		NA	NA	NA	NA	NA	NA	NA	NA	-6experiment_aud_3_1_1	17	17	<?xml version=1.0?>\n<Clock xmlns:dt=urn:schemas-microsoft-com:datatypes><Description dt:dt=string>E-Prime Primary Realtime Clock</Description><StartTime><Timestamp dt:dt=int>0</Timestamp><DateUtc dt:dt=string>2011-12-15T08:28:00Z</DateUtc></StartTime><FrequencyChanges><FrequencyChange><Frequency dt:dt=r8>2593230000</Frequency><Timestamp dt:dt=r8>3923494318198</Timestamp><Current dt:dt=r8>0</Current><DateUtc dt:dt=string>2011-12-15T08:28:00Z</DateUtc></FrequencyChange></FrequencyChanges></Clock>\n	15.12.11 9:28	85.032	1	-1593549955	12-15-2011	9:28:00	8:28:00	2	Experiment	WholeExperiment	NA	2	1	2	1		1	1	1		NA	NA	NA	NA	NA	NA	NA	NA		NA	NA	NA	Block1	Blocks		NA		NA	NA	NA		NA	NA	NA		NA	NA	NA		NA	NA	NA	NA		NA	NA	NA	NA	NA		NA	NA	NA	NA	NA		NA	NA	NA	18	wavs\11_a_tf_dxx.wav	37	1	18	NA	NA	NA	a_tf_dec	0	392429	6	0	11	3	0	0	pictures\ec_11	Uncover5	Block1List	Die Schere ist mit Halbkreisen, die Blumen beinhalten, und Achtecken verbunden.	382637	k	3920	0	386605	k	495	0	387133	k	2446	0	389614	k	1069	0	0	390717	f	1675	0	NA	NA	0		NA	NA	NA	NA	0		NA	NA	NA	NA	NA	NA	NA	NA	5experiment_aud_3_1_1	17	17	<?xml version=1.0?>\n<Clock xmlns:dt=urn:schemas-microsoft-com:datatypes><Description dt:dt=string>E-Prime Primary Realtime Clock</Description><StartTime><Timestamp dt:dt=int>0</Timestamp><DateUtc dt:dt=string>2011-12-15T08:28:00Z</DateUtc></StartTime><FrequencyChanges><FrequencyChange><Frequency dt:dt=r8>2593230000</Frequency><Timestamp dt:dt=r8>3923494318198</Timestamp><Current dt:dt=r8>0</Current><DateUtc dt:dt=string>2011-12-15T08:28:00Z</DateUtc></FrequencyChange></FrequencyChanges></Clock>\n	15.12.11 9:28	85.032	1	-1593549955	12-15-2011	9:28:00	8:28:00	2	Experiment	WholeExperiment	NA	2	1	2	1		1	1	1		NA	NA	NA	NA	NA	NA	NA	NA		NA	NA	NA	Block1	Blocks		NA		NA	NA	NA		NA	NA	NA		NA	NA	NA		NA	NA	NA	NA		NA	NA	NA	NA	NA		NA	NA	NA	NA	NA		NA	NA	NA	19	wavs\15_a_tf_axe.wav	32	1	19	NA	NA	NA	a_tf_ale	5	402669	0	0	15	0	0	0	pictures\lc_15	Uncover7	Block1List	Der Stift ist mit Dreiecken und Sechsecken mit Sonnen verbunden.	397055	k	1709	0	398813	k	720	0	399565	k	976	0	400573	k	1196	0	NA	401805	k	373	NA	0	NA	402206	j	437	NA	0	0	0	0	0	NA	NA	NA	NA	NA	NA	NA	-6experiment_aud_3_1_1	17	17	<?xml version=1.0?>\n<Clock xmlns:dt=urn:schemas-microsoft-com:datatypes><Description dt:dt=string>E-Prime Primary Realtime Clock</Description><StartTime><Timestamp dt:dt=int>0</Timestamp><DateUtc dt:dt=string>2011-12-15T08:28:00Z</DateUtc></StartTime><FrequencyChanges><FrequencyChange><Frequency dt:dt=r8>2593230000</Frequency><Timestamp dt:dt=r8>3923494318198</Timestamp><Current dt:dt=r8>0</Current><DateUtc dt:dt=string>2011-12-15T08:28:00Z</DateUtc></FrequencyChange></FrequencyChanges></Clock>\n	15.12.11 9:28	85.032	1	-1593549955	12-15-2011	9:28:00	8:28:00	2	Experiment	WholeExperiment	NA	2	1	2	1		1	1	1		NA	NA	NA	NA	NA	NA	NA	NA		NA	NA	NA	Block1	Blocks		NA		NA	NA	NA		NA	NA	NA		NA	NA	NA		NA	NA	NA	NA		NA	NA	NA	NA	NA		NA	NA	NA	NA	NA		NA	NA	NA	20	wavs\21_a_tf_axl.wav	35	1	20	NA	NA	NA	a_tf_all	5	413566	0	0	21	0	0	0	pictures\lc_21	Uncover7	Block1List	Die Glocke ist mit Dreiecken und Achtecken mit Herzen verbunden.	408328	k	1562	0	409934	k	1467	0	411437	f	2101	0	0	0	0	NA	NA	0	0	0	NA	NA	NA	0	0	0	NA	NA	0	0	0	0	NA	NA	NA	NA	NA	NA	NA	3experiment_aud_3_1_1	17	17	<?xml version=1.0?>\n<Clock xmlns:dt=urn:schemas-microsoft-com:datatypes><Description dt:dt=string>E-Prime Primary Realtime Clock</Description><StartTime><Timestamp dt:dt=int>0</Timestamp><DateUtc dt:dt=string>2011-12-15T08:28:00Z</DateUtc></StartTime><FrequencyChanges><FrequencyChange><Frequency dt:dt=r8>2593230000</Frequency><Timestamp dt:dt=r8>3923494318198</Timestamp><Current dt:dt=r8>0</Current><DateUtc dt:dt=string>2011-12-15T08:28:00Z</DateUtc></FrequencyChange></FrequencyChanges></Clock>\n	15.12.11 9:28	85.032	1	-1593549955	12-15-2011	9:28:00	8:28:00	2	Experiment	WholeExperiment	NA	2	1	2	1		1	1	1		NA	NA	NA	NA	NA	NA	NA	NA		NA	NA	NA	Block1	Blocks		NA		NA	NA	NA		NA	NA	NA		NA	NA	NA		NA	NA	NA	NA		NA	NA	NA	NA	NA		NA	NA	NA	NA	NA		NA	NA	NA	21	wavs\03_a_ca_glb.wav	5	1	21	NA	NA	NA	a_ca_glb	5	423662	0	0	3	0	0	0	pictures\ae_03	Uncover7	Block1List	Mindestens ein Blitz ist mit genau fünf seiner Fünfecke verbunden.	417749	k	2334	0	420125	k	455	0	420621	k	777	0	421437	k	706	0	NA	422189	f	1425	NA	0	NA	0	0	0	NA	NA	0	0	0	0	NA	1	NA	NA	NA	NA	NA	5experiment_aud_3_1_1	17	17	<?xml version=1.0?>\n<Clock xmlns:dt=urn:schemas-microsoft-com:datatypes><Description dt:dt=string>E-Prime Primary Realtime Clock</Description><StartTime><Timestamp dt:dt=int>0</Timestamp><DateUtc dt:dt=string>2011-12-15T08:28:00Z</DateUtc></StartTime><FrequencyChanges><FrequencyChange><Frequency dt:dt=r8>2593230000</Frequency><Timestamp dt:dt=r8>3923494318198</Timestamp><Current dt:dt=r8>0</Current><DateUtc dt:dt=string>2011-12-15T08:28:00Z</DateUtc></FrequencyChange></FrequencyChanges></Clock>\n	15.12.11 9:28	85.032	1	-1593549955	12-15-2011	9:28:00	8:28:00	2	Experiment	WholeExperiment	NA	2	1	2	1		1	1	1		NA	NA	NA	NA	NA	NA	NA	NA		NA	NA	NA	Block1	Blocks		NA		NA	NA	NA		NA	NA	NA		NA	NA	NA		NA	NA	NA	NA		NA	NA	NA	NA	NA		NA	NA	NA	NA	NA		NA	NA	NA	22	wavs\17_a_tf_axe.wav	33	1	22	NA	NA	NA	a_tf_ale	5	432942	0	0	17	0	0	0	pictures\lc_17	Uncover7	Block1List	Der Stift ist mit Vierecken und Halbkreisen mit Blitzen verbunden.	427963	k	979	0	428988	k	575	0	429596	f	3308	0	0	0	0	NA	NA	0	0	0	NA	NA	NA	0	0	0	NA	NA	0	0	0	0	NA	NA	NA	NA	NA	NA	NA	3experiment_aud_3_1_1	17	17	<?xml version=1.0?>\n<Clock xmlns:dt=urn:schemas-microsoft-com:datatypes><Description dt:dt=string>E-Prime Primary Realtime Clock</Description><StartTime><Timestamp dt:dt=int>0</Timestamp><DateUtc dt:dt=string>2011-12-15T08:28:00Z</DateUtc></StartTime><FrequencyChanges><FrequencyChange><Frequency dt:dt=r8>2593230000</Frequency><Timestamp dt:dt=r8>3923494318198</Timestamp><Current dt:dt=r8>0</Current><DateUtc dt:dt=string>2011-12-15T08:28:00Z</DateUtc></FrequencyChange></FrequencyChanges></Clock>\n	15.12.11 9:28	85.032	1	-1593549955	12-15-2011	9:28:00	8:28:00	2	Experiment	WholeExperiment	NA	2	1	2	1		1	1	1		NA	NA	NA	NA	NA	NA	NA	NA		NA	NA	NA	Block1	Blocks		NA		NA	NA	NA		NA	NA	NA		NA	NA	NA		NA	NA	NA	NA		NA	NA	NA	NA	NA		NA	NA	NA	NA	NA		NA	NA	NA	23	wavs\04_a_rf_fff.wav	17	1	23	NA	NA	NA	a_rf_fff	-4	439581	0	0	4	0	0	0	pictures\rf_04	Uncover5	Block1List	Jeder Stift hat Verbindungen.	435317	k	1437	0	436796	k	543	0	437374	k	366	0	437772	j	1775	0	0	0	0	0	0	NA	NA	0		NA	NA	NA	NA	0		NA	NA	1	NA	NA	NA	NA	NA	-4experiment_aud_3_1_1	17	17	<?xml version=1.0?>\n<Clock xmlns:dt=urn:schemas-microsoft-com:datatypes><Description dt:dt=string>E-Prime Primary Realtime Clock</Description><StartTime><Timestamp dt:dt=int>0</Timestamp><DateUtc dt:dt=string>2011-12-15T08:28:00Z</DateUtc></StartTime><FrequencyChanges><FrequencyChange><Frequency dt:dt=r8>2593230000</Frequency><Timestamp dt:dt=r8>3923494318198</Timestamp><Current dt:dt=r8>0</Current><DateUtc dt:dt=string>2011-12-15T08:28:00Z</DateUtc></FrequencyChange></FrequencyChanges></Clock>\n	15.12.11 9:28	85.032	1	-1593549955	12-15-2011	9:28:00	8:28:00	2	Experiment	WholeExperiment	NA	2	1	2	1		1	1	1		NA	NA	NA	NA	NA	NA	NA	NA		NA	NA	NA	Block1	Blocks		NA		NA	NA	NA		NA	NA	NA		NA	NA	NA		NA	NA	NA	NA		NA	NA	NA	NA	NA		NA	NA	NA	NA	NA		NA	NA	NA	24	wavs\14_a_rf_fff.wav	21	1	24	NA	NA	NA	a_rf_fff	-4	449165	0	0	14	0	0	0	pictures\rf_14	Uncover5	Block1List	Einige Glocken sind mit Fünfecken und Halbkreisen verbunden.	443838	k	2649	0	446525	k	640	0	447196	k	482	0	447708	j	1420	0	0	0	0	0	0	NA	NA	0		NA	NA	NA	NA	0		NA	NA	1	NA	NA	NA	NA	NA	-4experiment_aud_3_1_1	17	17	<?xml version=1.0?>\n<Clock xmlns:dt=urn:schemas-microsoft-com:datatypes><Description dt:dt=string>E-Prime Primary Realtime Clock</Description><StartTime><Timestamp dt:dt=int>0</Timestamp><DateUtc dt:dt=string>2011-12-15T08:28:00Z</DateUtc></StartTime><FrequencyChanges><FrequencyChange><Frequency dt:dt=r8>2593230000</Frequency><Timestamp dt:dt=r8>3923494318198</Timestamp><Current dt:dt=r8>0</Current><DateUtc dt:dt=string>2011-12-15T08:28:00Z</DateUtc></FrequencyChange></FrequencyChanges></Clock>\n	15.12.11 9:28	85.032	1	-1593549955	12-15-2011	9:28:00	8:28:00	2	Experiment	WholeExperiment	NA	2	1	2	1		1	1	1		NA	NA	NA	NA	NA	NA	NA	NA		NA	NA	NA	Block1	Blocks		NA		NA	NA	NA		NA	NA	NA		NA	NA	NA		NA	NA	NA	NA		NA	NA	NA	NA	NA		NA	NA	NA	NA	NA		NA	NA	NA	25	wavs\22_a_rf_fff.wav	24	1	25	NA	NA	NA	a_rf_fff	-6	461420	0	0	22	0	0	0	pictures\rf_22	Uncover7	Block1List	Mehr als zwei Würfel sind mit genau einem Halbkreis verbunden.	453173	k	1092	0	454316	k	1723	0	456076	k	659	0	456764	k	2381	0	NA	459181	k	790	NA	0	NA	460012	j	1375	NA	0	0	0	0	0	NA	1	NA	NA	NA	NA	NA	-6experiment_aud_3_1_1	17	17	<?xml version=1.0?>\n<Clock xmlns:dt=urn:schemas-microsoft-com:datatypes><Description dt:dt=string>E-Prime Primary Realtime Clock</Description><StartTime><Timestamp dt:dt=int>0</Timestamp><DateUtc dt:dt=string>2011-12-15T08:28:00Z</DateUtc></StartTime><FrequencyChanges><FrequencyChange><Frequency dt:dt=r8>2593230000</Frequency><Timestamp dt:dt=r8>3923494318198</Timestamp><Current dt:dt=r8>0</Current><DateUtc dt:dt=string>2011-12-15T08:28:00Z</DateUtc></FrequencyChange></FrequencyChanges></Clock>\n	15.12.11 9:28	85.032	1	-1593549955	12-15-2011	9:28:00	8:28:00	2	Experiment	WholeExperiment	NA	2	1	2	1		1	1	1		NA	NA	NA	NA	NA	NA	NA	NA		NA	NA	NA	Block1	Blocks		NA		NA	NA	NA		NA	NA	NA		NA	NA	NA		NA	NA	NA	NA		NA	NA	NA	NA	NA		NA	NA	NA	NA	NA		NA	NA	NA	26	wavs\15_a_ae_akz.wav	2	1	26	NA	NA	NA	a_ae_akz	0	468205	0	5	15	0	3	-7	pictures\ae_15	Uncover7	Block1List	Alle diese Blitze sind mit nur einigen ihrer Dreiecke verbunden.	464825	k	1262	0	466141	k	688	0	466860	f	1315	0	0	0	0	NA	NA	0	0	0	NA	NA	NA	0	0	0	NA	NA	0	0	0	0	NA	NA	NA	NA	NA	1	NA	3experiment_aud_3_1_1	17	17	<?xml version=1.0?>\n<Clock xmlns:dt=urn:schemas-microsoft-com:datatypes><Description dt:dt=string>E-Prime Primary Realtime Clock</Description><StartTime><Timestamp dt:dt=int>0</Timestamp><DateUtc dt:dt=string>2011-12-15T08:28:00Z</DateUtc></StartTime><FrequencyChanges><FrequencyChange><Frequency dt:dt=r8>2593230000</Frequency><Timestamp dt:dt=r8>3923494318198</Timestamp><Current dt:dt=r8>0</Current><DateUtc dt:dt=string>2011-12-15T08:28:00Z</DateUtc></FrequencyChange></FrequencyChanges></Clock>\n	15.12.11 9:28	85.032	1	-1593549955	12-15-2011	9:28:00	8:28:00	2	Experiment	WholeExperiment	NA	2	1	2	1		1	1	1		NA	NA	NA	NA	NA	NA	NA	NA		NA	NA	NA	Block1	Blocks		NA		NA	NA	NA		NA	NA	NA		NA	NA	NA		NA	NA	NA	NA		NA	NA	NA	NA	NA		NA	NA	NA	NA	NA		NA	NA	NA	27	wavs\15_a_ge_akz.wav	14	1	27	NA	NA	NA	a_ge_akz	0	476828	0	-2	15	0	-3	5	pictures\ge_15	Uncover5	Block1List	Genau einer der Blitze ist mit nur einigen seiner Dreiecke verbunden.	472055	k	2009	0	474108	k	970	0	475116	j	1683	0	0	0	0	NA	0	0	0	0	0	NA	NA	0		NA	NA	NA	NA	0		NA	NA	NA	NA	NA	NA	1	NA	-3experiment_aud_3_1_1	17	17	<?xml version=1.0?>\n<Clock xmlns:dt=urn:schemas-microsoft-com:datatypes><Description dt:dt=string>E-Prime Primary Realtime Clock</Description><StartTime><Timestamp dt:dt=int>0</Timestamp><DateUtc dt:dt=string>2011-12-15T08:28:00Z</DateUtc></StartTime><FrequencyChanges><FrequencyChange><Frequency dt:dt=r8>2593230000</Frequency><Timestamp dt:dt=r8>3923494318198</Timestamp><Current dt:dt=r8>0</Current><DateUtc dt:dt=string>2011-12-15T08:28:00Z</DateUtc></FrequencyChange></FrequencyChanges></Clock>\n	15.12.11 9:28	85.032	1	-1593549955	12-15-2011	9:28:00	8:28:00	2	Experiment	WholeExperiment	NA	2	1	2	1		1	1	1		NA	NA	NA	NA	NA	NA	NA	NA		NA	NA	NA	Block1	Blocks		NA		NA	NA	NA		NA	NA	NA		NA	NA	NA		NA	NA	NA	NA		NA	NA	NA	NA	NA		NA	NA	NA	NA	NA		NA	NA	NA	28	wavs\09_a_ca_loc.wav	8	1	28	NA	NA	NA	a_ca_loc	-7	486845	0	0	9	0	0	0	pictures\ae_09	Uncover7	Block1List	Jeder Blitz ist mit mindestens vier seiner Halbkreise verbunden.	481007	k	1063	0	482124	k	514	0	482668	k	621	0	483340	k	406	0	NA	483772	k	563	NA	0	NA	484363	k	791	NA	0	0	485180	j	1632	0	1	NA	NA	NA	NA	NA	-7experiment_aud_3_1_1	17	17	<?xml version=1.0?>\n<Clock xmlns:dt=urn:schemas-microsoft-com:datatypes><Description dt:dt=string>E-Prime Primary Realtime Clock</Description><StartTime><Timestamp dt:dt=int>0</Timestamp><DateUtc dt:dt=string>2011-12-15T08:28:00Z</DateUtc></StartTime><FrequencyChanges><FrequencyChange><Frequency dt:dt=r8>2593230000</Frequency><Timestamp dt:dt=r8>3923494318198</Timestamp><Current dt:dt=r8>0</Current><DateUtc dt:dt=string>2011-12-15T08:28:00Z</DateUtc></FrequencyChange></FrequencyChanges></Clock>\n	15.12.11 9:28	85.032	1	-1593549955	12-15-2011	9:28:00	8:28:00	2	Experiment	WholeExperiment	NA	2	1	2	1		1	1	1		NA	NA	NA	NA	NA	NA	NA	NA		NA	NA	NA	Block1	Blocks		NA		NA	NA	NA		NA	NA	NA		NA	NA	NA		NA	NA	NA	NA		NA	NA	NA	NA	NA		NA	NA	NA	NA	NA		NA	NA	NA	29	wavs\24_a_rf_fff.wav	25	1	29	NA	NA	NA	a_rf_fff	7	498556	0	0	24	0	0	0	pictures\rf_24	Uncover7	Block1List	Mehr als zwei Scheren sind mit genau einem Quadrat verbunden.	491044	k	755	0	491835	k	1952	0	493820	k	876	0	494731	k	659	0	NA	495419	k	893	NA	0	NA	496347	k	844	NA	0	0	497227	f	1302	0	1	NA	NA	NA	NA	NA	7experiment_aud_3_1_1	17	17	<?xml version=1.0?>\n<Clock xmlns:dt=urn:schemas-microsoft-com:datatypes><Description dt:dt=string>E-Prime Primary Realtime Clock</Description><StartTime><Timestamp dt:dt=int>0</Timestamp><DateUtc dt:dt=string>2011-12-15T08:28:00Z</DateUtc></StartTime><FrequencyChanges><FrequencyChange><Frequency dt:dt=r8>2593230000</Frequency><Timestamp dt:dt=r8>3923494318198</Timestamp><Current dt:dt=r8>0</Current><DateUtc dt:dt=string>2011-12-15T08:28:00Z</DateUtc></FrequencyChange></FrequencyChanges></Clock>\n	15.12.11 9:28	85.032	1	-1593549955	12-15-2011	9:28:00	8:28:00	2	Experiment	WholeExperiment	NA	2	1	2	1		1	1	1		NA	NA	NA	NA	NA	NA	NA	NA		NA	NA	NA	Block1	Blocks		NA		NA	NA	NA		NA	NA	NA		NA	NA	NA		NA	NA	NA	NA		NA	NA	NA	NA	NA		NA	NA	NA	NA	NA		NA	NA	NA	30	wavs\06_a_cg_lit.wav	11	1	30	NA	NA	NA	a_cg_lit	-3	504940	0	0	6	0	0	0	pictures\ge_06	Uncover5	Block1List	Alle Briefe sind mit allen ihren Halbkreisen verbunden.	501927	k	470	0	502427	k	1083	0	503547	j	1358	0	0	0	0	NA	0	0	0	0	0	NA	NA	0		NA	NA	NA	NA	0		NA	NA	1	NA	NA	NA	NA	NA	-3experiment_aud_3_1_1	17	17	<?xml version=1.0?>\n<Clock xmlns:dt=urn:schemas-microsoft-com:datatypes><Description dt:dt=string>E-Prime Primary Realtime Clock</Description><StartTime><Timestamp dt:dt=int>0</Timestamp><DateUtc dt:dt=string>2011-12-15T08:28:00Z</DateUtc></StartTime><FrequencyChanges><FrequencyChange><Frequency dt:dt=r8>2593230000</Frequency><Timestamp dt:dt=r8>3923494318198</Timestamp><Current dt:dt=r8>0</Current><DateUtc dt:dt=string>2011-12-15T08:28:00Z</DateUtc></FrequencyChange></FrequencyChanges></Clock>\n	15.12.11 9:28	85.032	1	-1593549955	12-15-2011	9:28:00	8:28:00	2	Experiment	WholeExperiment	NA	2	1	2	1		1	1	1		NA	NA	NA	NA	NA	NA	NA	NA		NA	NA	NA	Block1	Blocks		NA		NA	NA	NA		NA	NA	NA		NA	NA	NA		NA	NA	NA	NA		NA	NA	NA	NA	NA		NA	NA	NA	NA	NA		NA	NA	NA	31	wavs\08_a_cg_loc.wav	12	1	31	NA	NA	NA	a_cg_loc	5	513243	0	0	8	0	0	0	pictures\ge_08	Uncover5	Block1List	Mindestens drei Scheren sind mit allen ihren Fünfecken verbunden.	508446	k	854	0	509339	k	500	0	509867	k	978	0	510875	k	719	0	0	511627	f	1582	0	NA	NA	0		NA	NA	NA	NA	0		NA	NA	NA	NA	NA	NA	NA	NA	5experiment_aud_3_1_1	17	17	<?xml version=1.0?>\n<Clock xmlns:dt=urn:schemas-microsoft-com:datatypes><Description dt:dt=string>E-Prime Primary Realtime Clock</Description><StartTime><Timestamp dt:dt=int>0</Timestamp><DateUtc dt:dt=string>2011-12-15T08:28:00Z</DateUtc></StartTime><FrequencyChanges><FrequencyChange><Frequency dt:dt=r8>2593230000</Frequency><Timestamp dt:dt=r8>3923494318198</Timestamp><Current dt:dt=r8>0</Current><DateUtc dt:dt=string>2011-12-15T08:28:00Z</DateUtc></FrequencyChange></FrequencyChanges></Clock>\n	15.12.11 9:28	85.032	1	-1593549955	12-15-2011	9:28:00	8:28:00	2	Experiment	WholeExperiment	NA	2	1	2	1		1	1	1		NA	NA	NA	NA	NA	NA	NA	NA		NA	NA	NA	Block1	Blocks		NA		NA	NA	NA		NA	NA	NA		NA	NA	NA		NA	NA	NA	NA		NA	NA	NA	NA	NA		NA	NA	NA	NA	NA		NA	NA	NA	32	wavs\09_a_tf_axn.wav	31	1	32	NA	NA	NA	a_tf_aen	0	525211	6	0	9	3	0	0	pictures\ec_09	Uncover5	Block1List	Die Schere ist mit Dreiecken und Vierecken mit Sternen verbunden.	517630	k	3029	0	520699	k	867	0	521596	k	2021	0	523643	k	427	0	0	524107	f	1073	0	NA	NA	0		NA	NA	NA	NA	0		NA	NA	NA	NA	NA	NA	NA	NA	5experiment_aud_3_1_1	17	17	<?xml version=1.0?>\n<Clock xmlns:dt=urn:schemas-microsoft-com:datatypes><Description dt:dt=string>E-Prime Primary Realtime Clock</Description><StartTime><Timestamp dt:dt=int>0</Timestamp><DateUtc dt:dt=string>2011-12-15T08:28:00Z</DateUtc></StartTime><FrequencyChanges><FrequencyChange><Frequency dt:dt=r8>2593230000</Frequency><Timestamp dt:dt=r8>3923494318198</Timestamp><Current dt:dt=r8>0</Current><DateUtc dt:dt=string>2011-12-15T08:28:00Z</DateUtc></FrequencyChange></FrequencyChanges></Clock>\n	15.12.11 9:28	85.032	1	-1593549955	12-15-2011	9:28:00	8:28:00	2	Experiment	WholeExperiment	NA	2	1	2	1		1	1	1		NA	NA	NA	NA	NA	NA	NA	NA		NA	NA	NA	Block1	Blocks		NA		NA	NA	NA		NA	NA	NA		NA	NA	NA		NA	NA	NA	NA		NA	NA	NA	NA	NA		NA	NA	NA	NA	NA		NA	NA	NA	33	wavs\13_a_tf_dxx.wav	38	1	33	NA	NA	NA	a_tf_dec	0	536123	6	0	13	3	0	0	pictures\ec_13	Uncover5	Block1List	Der Stift ist mit Achtecken, die Monde beinhalten, und Kreisen verbunden.	529946	k	3036	0	533019	k	510	0	533563	k	1042	0	534635	k	643	0	0	535308	f	789	0	NA	NA	0		NA	NA	NA	NA	0		NA	NA	NA	NA	NA	NA	NA	NA	5experiment_aud_3_1_1	17	17	<?xml version=1.0?>\n<Clock xmlns:dt=urn:schemas-microsoft-com:datatypes><Description dt:dt=string>E-Prime Primary Realtime Clock</Description><StartTime><Timestamp dt:dt=int>0</Timestamp><DateUtc dt:dt=string>2011-12-15T08:28:00Z</DateUtc></StartTime><FrequencyChanges><FrequencyChange><Frequency dt:dt=r8>2593230000</Frequency><Timestamp dt:dt=r8>3923494318198</Timestamp><Current dt:dt=r8>0</Current><DateUtc dt:dt=string>2011-12-15T08:28:00Z</DateUtc></FrequencyChange></FrequencyChanges></Clock>\n	15.12.11 9:28	85.032	1	-1593549955	12-15-2011	9:28:00	8:28:00	2	Experiment	WholeExperiment	NA	2	1	2	1		1	1	1		NA	NA	NA	NA	NA	NA	NA	NA		NA	NA	NA	Block1	Blocks		NA		NA	NA	NA		NA	NA	NA		NA	NA	NA		NA	NA	NA	NA		NA	NA	NA	NA	NA		NA	NA	NA	NA	NA		NA	NA	NA	34	wavs\09_a_rf_fff.wav	19	1	34	NA	NA	NA	a_rf_fff	-2	545323	0	0	9	0	0	0	pictures\rf_09	Uncover6	Block1List	Kein Würfel ist mit einigen Achtecken verbunden.	539013	k	4192	0	543244	j	2051	0	0	0	0	NA	0	0	0	NA	NA	0	0	0	NA	NA	0	0	0	0	0	NA	NA	0		NA	NA	1	NA	NA	NA	NA	NA	-2experiment_aud_3_1_1	17	17	<?xml version=1.0?>\n<Clock xmlns:dt=urn:schemas-microsoft-com:datatypes><Description dt:dt=string>E-Prime Primary Realtime Clock</Description><StartTime><Timestamp dt:dt=int>0</Timestamp><DateUtc dt:dt=string>2011-12-15T08:28:00Z</DateUtc></StartTime><FrequencyChanges><FrequencyChange><Frequency dt:dt=r8>2593230000</Frequency><Timestamp dt:dt=r8>3923494318198</Timestamp><Current dt:dt=r8>0</Current><DateUtc dt:dt=string>2011-12-15T08:28:00Z</DateUtc></FrequencyChange></FrequencyChanges></Clock>\n	15.12.11 9:28	85.032	1	-1593549955	12-15-2011	9:28:00	8:28:00	2	Experiment	WholeExperiment	NA	2	1	2	1		1	1	1		NA	NA	NA	NA	NA	NA	NA	NA		NA	NA	NA	Block1	Blocks		NA		NA	NA	NA		NA	NA	NA		NA	NA	NA		NA	NA	NA	NA		NA	NA	NA	NA	NA		NA	NA	NA	NA	NA		NA	NA	NA	35	wavs\02_a_rf_fff.wav	16	1	35	NA	NA	NA	a_rf_fff	-3	553451	0	0	2	0	0	0	pictures\rf_02	Uncover6	Block1List	Jeder Blitz ist mit der Hälfte seiner Halbkreise verbunden.	549226	k	1086	0	550378	k	464	0	550874	j	2546	0	0	0	0	NA	NA	0	0	0	NA	NA	0	0	0	0	0	NA	NA	0		NA	NA	1	NA	NA	NA	NA	NA	-3experiment_aud_3_1_1	17	17	<?xml version=1.0?>\n<Clock xmlns:dt=urn:schemas-microsoft-com:datatypes><Description dt:dt=string>E-Prime Primary Realtime Clock</Description><StartTime><Timestamp dt:dt=int>0</Timestamp><DateUtc dt:dt=string>2011-12-15T08:28:00Z</DateUtc></StartTime><FrequencyChanges><FrequencyChange><Frequency dt:dt=r8>2593230000</Frequency><Timestamp dt:dt=r8>3923494318198</Timestamp><Current dt:dt=r8>0</Current><DateUtc dt:dt=string>2011-12-15T08:28:00Z</DateUtc></FrequencyChange></FrequencyChanges></Clock>\n	15.12.11 9:28	85.032	1	-1593549955	12-15-2011	9:28:00	8:28:00	2	Experiment	WholeExperiment	NA	2	1	2	1		1	1	1		NA	NA	NA	NA	NA	NA	NA	NA		NA	NA	NA	Block1	Blocks		NA		NA	NA	NA		NA	NA	NA		NA	NA	NA		NA	NA	NA	NA		NA	NA	NA	NA	NA		NA	NA	NA	NA	NA		NA	NA	NA	36	wavs\02_a_cg_glb.wav	9	1	36	NA	NA	NA	a_cg_glb	-2	562219	0	0	2	0	0	0	pictures\ge_02	Uncover5	Block1List	Alle Scheren sind mit weniger als vier ihrer Kreise verbunden. 	558787	k	748	0	559578	j	2611	0	0	0	0	NA	0	0	0	NA	0	0	0	0	0	NA	NA	0		NA	NA	NA	NA	0		NA	NA	1	NA	NA	NA	NA	NA	-2experiment_aud_3_1_1	17	17	<?xml version=1.0?>\n<Clock xmlns:dt=urn:schemas-microsoft-com:datatypes><Description dt:dt=string>E-Prime Primary Realtime Clock</Description><StartTime><Timestamp dt:dt=int>0</Timestamp><DateUtc dt:dt=string>2011-12-15T08:28:00Z</DateUtc></StartTime><FrequencyChanges><FrequencyChange><Frequency dt:dt=r8>2593230000</Frequency><Timestamp dt:dt=r8>3923494318198</Timestamp><Current dt:dt=r8>0</Current><DateUtc dt:dt=string>2011-12-15T08:28:00Z</DateUtc></FrequencyChange></FrequencyChanges></Clock>\n	15.12.11 9:28	85.032	1	-1593549955	12-15-2011	9:28:00	8:28:00	2	Experiment	WholeExperiment	NA	2	1	2	1		1	1	1		NA	NA	NA	NA	NA	NA	NA	NA		NA	NA	NA	Block1	Blocks		NA		NA	NA	NA		NA	NA	NA		NA	NA	NA		NA	NA	NA	NA		NA	NA	NA	NA	NA		NA	NA	NA	NA	NA		NA	NA	NA	37	wavs\19_a_rf_fff.wav	23	1	37	NA	NA	NA	a_rf_fff	-5	576938	0	0	19	0	0	0	pictures\rf_19	Uncover5	Block1List	Die Hälfte der Uhren ist mit genau zwei ihrer Quadrate verbunden.	567014	k	2767	0	569818	k	1472	0	571323	k	526	0	571882	k	3734	0	0	575642	j	1266	0	NA	NA	0		NA	NA	NA	NA	0		NA	NA	NA	NA	NA	NA	NA	NA	-5experiment_aud_3_1_1	17	17	<?xml version=1.0?>\n<Clock xmlns:dt=urn:schemas-microsoft-com:datatypes><Description dt:dt=string>E-Prime Primary Realtime Clock</Description><StartTime><Timestamp dt:dt=int>0</Timestamp><DateUtc dt:dt=string>2011-12-15T08:28:00Z</DateUtc></StartTime><FrequencyChanges><FrequencyChange><Frequency dt:dt=r8>2593230000</Frequency><Timestamp dt:dt=r8>3923494318198</Timestamp><Current dt:dt=r8>0</Current><DateUtc dt:dt=string>2011-12-15T08:28:00Z</DateUtc></FrequencyChange></FrequencyChanges></Clock>\n	15.12.11 9:28	85.032	1	-1593549955	12-15-2011	9:28:00	8:28:00	2	Experiment	WholeExperiment	NA	2	1	2	1		1	1	1		NA	NA	NA	NA	NA	NA	NA	NA		NA	NA	NA	Block1	Blocks		NA		NA	NA	NA		NA	NA	NA		NA	NA	NA		NA	NA	NA	NA		NA	NA	NA	NA	NA		NA	NA	NA	NA	NA		NA	NA	NA	38	wavs\04_a_cg_lit.wav	10	1	38	NA	NA	NA	a_cg_lit	-3	583291	0	0	4	0	0	0	pictures\ge_04	Uncover5	Block1List	Alle Blitze sind mit allen ihren Quadraten verbunden.	580211	k	867	0	581114	k	214	0	581354	k	511	0	581898	j	1362	0	0	0	0	0	0	NA	NA	0		NA	NA	NA	NA	0		NA	NA	NA	NA	NA	NA	NA	NA	-4experiment_aud_3_1_1	17	17	<?xml version=1.0?>\n<Clock xmlns:dt=urn:schemas-microsoft-com:datatypes><Description dt:dt=string>E-Prime Primary Realtime Clock</Description><StartTime><Timestamp dt:dt=int>0</Timestamp><DateUtc dt:dt=string>2011-12-15T08:28:00Z</DateUtc></StartTime><FrequencyChanges><FrequencyChange><Frequency dt:dt=r8>2593230000</Frequency><Timestamp dt:dt=r8>3923494318198</Timestamp><Current dt:dt=r8>0</Current><DateUtc dt:dt=string>2011-12-15T08:28:00Z</DateUtc></FrequencyChange></FrequencyChanges></Clock>\n	15.12.11 9:28	85.032	1	-1593549955	12-15-2011	9:28:00	8:28:00	2	Experiment	WholeExperiment	NA	2	1	2	1		1	1	1		NA	NA	NA	NA	NA	NA	NA	NA		NA	NA	NA	Block1	Blocks		NA		NA	NA	NA		NA	NA	NA		NA	NA	NA		NA	NA	NA	NA		NA	NA	NA	NA	NA		NA	NA	NA	NA	NA		NA	NA	NA	39	wavs\27_a_tf_dxx.wav	40	1	39	NA	NA	NA	a_tf_dlc	3	595563	0	0	27	0	0	0	pictures\lc_27	Uncover7	Block1List	Die Uhr ist mit Vierecken, die Monde beinhalten, und Dreiecken verbunden.	587784	k	3207	0	591051	k	517	0	591594	f	3932	0	0	0	0	NA	NA	0	0	0	NA	NA	NA	0	0	0	NA	NA	0	0	0	0	NA	1	NA	NA	NA	NA	NA	3experiment_aud_3_1_1	17	17	<?xml version=1.0?>\n<Clock xmlns:dt=urn:schemas-microsoft-com:datatypes><Description dt:dt=string>E-Prime Primary Realtime Clock</Description><StartTime><Timestamp dt:dt=int>0</Timestamp><DateUtc dt:dt=string>2011-12-15T08:28:00Z</DateUtc></StartTime><FrequencyChanges><FrequencyChange><Frequency dt:dt=r8>2593230000</Frequency><Timestamp dt:dt=r8>3923494318198</Timestamp><Current dt:dt=r8>0</Current><DateUtc dt:dt=string>2011-12-15T08:28:00Z</DateUtc></FrequencyChange></FrequencyChanges></Clock>\n	15.12.11 9:28	85.032	1	-1593549955	12-15-2011	9:28:00	8:28:00	2	Experiment	WholeExperiment	NA	2	1	2	2		2	1	2		NA	NA	NA	NA	NA	NA	NA	NA		NA	NA	NA	Block2	Blocks		NA		NA	NA	NA		NA	NA	NA		NA	NA	NA		NA	NA	NA	NA		NA	NA	NA	NA	NA		NA	NA	NA	NA	NA		NA	NA	NA	1	wavs\14_a_ae_akz.wav	NA	NA	NA	1	1	1	a_ae_akz	0	606299	0	3	14	0	-7	5	pictures\ae_14	Uncover7	Block2List	Alle diese Stifte sind mit nur einigen ihrer Halbkreise verbunden.	600005	k	3575	0	603625	k	509	0	604169	f	2096	0	0	0	0	NA	NA	0	0	0	NA	NA	NA	0	0	0	NA	NA	0	0	0	0	NA	NA	NA	1	NA	NA	NA	3experiment_aud_3_1_1	17	17	<?xml version=1.0?>\n<Clock xmlns:dt=urn:schemas-microsoft-com:datatypes><Description dt:dt=string>E-Prime Primary Realtime Clock</Description><StartTime><Timestamp dt:dt=int>0</Timestamp><DateUtc dt:dt=string>2011-12-15T08:28:00Z</DateUtc></StartTime><FrequencyChanges><FrequencyChange><Frequency dt:dt=r8>2593230000</Frequency><Timestamp dt:dt=r8>3923494318198</Timestamp><Current dt:dt=r8>0</Current><DateUtc dt:dt=string>2011-12-15T08:28:00Z</DateUtc></FrequencyChange></FrequencyChanges></Clock>\n	15.12.11 9:28	85.032	1	-1593549955	12-15-2011	9:28:00	8:28:00	2	Experiment	WholeExperiment	NA	2	1	2	2		2	1	2		NA	NA	NA	NA	NA	NA	NA	NA		NA	NA	NA	Block2	Blocks		NA		NA	NA	NA		NA	NA	NA		NA	NA	NA		NA	NA	NA	NA		NA	NA	NA	NA	NA		NA	NA	NA	NA	NA		NA	NA	NA	2	wavs\10_a_ae_ntr.wav	NA	NA	NA	2	1	2	a_ae_ntr	0	613403	0	3	10	0	-7	5	pictures\ae_10	Uncover7	Block2List	Alle diese Würfel sind mit einigen ihrer Dreiecke verbunden.	609933	k	1014	0	611001	k	388	0	611433	f	1932	0	0	0	0	NA	NA	0	0	0	NA	NA	NA	0	0	0	NA	NA	0	0	0	0	NA	NA	NA	1	NA	NA	NA	3experiment_aud_3_1_1	17	17	<?xml version=1.0?>\n<Clock xmlns:dt=urn:schemas-microsoft-com:datatypes><Description dt:dt=string>E-Prime Primary Realtime Clock</Description><StartTime><Timestamp dt:dt=int>0</Timestamp><DateUtc dt:dt=string>2011-12-15T08:28:00Z</DateUtc></StartTime><FrequencyChanges><FrequencyChange><Frequency dt:dt=r8>2593230000</Frequency><Timestamp dt:dt=r8>3923494318198</Timestamp><Current dt:dt=r8>0</Current><DateUtc dt:dt=string>2011-12-15T08:28:00Z</DateUtc></FrequencyChange></FrequencyChanges></Clock>\n	15.12.11 9:28	85.032	1	-1593549955	12-15-2011	9:28:00	8:28:00	2	Experiment	WholeExperiment	NA	2	1	2	2		2	1	2		NA	NA	NA	NA	NA	NA	NA	NA		NA	NA	NA	Block2	Blocks		NA		NA	NA	NA		NA	NA	NA		NA	NA	NA		NA	NA	NA	NA		NA	NA	NA	NA	NA		NA	NA	NA	NA	NA		NA	NA	NA	3	wavs\12_a_ae_ntr.wav	NA	NA	NA	3	1	3	a_ae_ntr	0	620938	0	3	12	0	-7	5	pictures\ae_12	Uncover7	Block2List	Alle diese Glocken sind mit einigen ihrer Fünfecke verbunden.	617554	k	1021	0	618617	k	486	0	619130	f	1753	0	0	0	0	NA	NA	0	0	0	NA	NA	NA	0	0	0	NA	NA	0	0	0	0	NA	NA	NA	1	NA	NA	NA	3experiment_aud_3_1_1	17	17	<?xml version=1.0?>\n<Clock xmlns:dt=urn:schemas-microsoft-com:datatypes><Description dt:dt=string>E-Prime Primary Realtime Clock</Description><StartTime><Timestamp dt:dt=int>0</Timestamp><DateUtc dt:dt=string>2011-12-15T08:28:00Z</DateUtc></StartTime><FrequencyChanges><FrequencyChange><Frequency dt:dt=r8>2593230000</Frequency><Timestamp dt:dt=r8>3923494318198</Timestamp><Current dt:dt=r8>0</Current><DateUtc dt:dt=string>2011-12-15T08:28:00Z</DateUtc></FrequencyChange></FrequencyChanges></Clock>\n	15.12.11 9:28	85.032	1	-1593549955	12-15-2011	9:28:00	8:28:00	2	Experiment	WholeExperiment	NA	2	1	2	2		2	1	2		NA	NA	NA	NA	NA	NA	NA	NA		NA	NA	NA	Block2	Blocks		NA		NA	NA	NA		NA	NA	NA		NA	NA	NA		NA	NA	NA	NA		NA	NA	NA	NA	NA		NA	NA	NA	NA	NA		NA	NA	NA	4	wavs\02_a_ca_glb.wav	NA	NA	NA	4	1	4	a_ca_glb	5	630314	0	0	2	0	0	0	pictures\ae_02	Uncover7	Block2List	Mindestens ein Stift ist mit genau fünf seiner Quadraten verbunden.	625469	k	1142	0	626666	k	498	0	627209	k	849	0	628089	k	959	0	NA	629081	f	1203	NA	0	NA	0	0	0	NA	NA	0	0	0	0	NA	1	NA	NA	NA	NA	NA	5experiment_aud_3_1_1	17	17	<?xml version=1.0?>\n<Clock xmlns:dt=urn:schemas-microsoft-com:datatypes><Description dt:dt=string>E-Prime Primary Realtime Clock</Description><StartTime><Timestamp dt:dt=int>0</Timestamp><DateUtc dt:dt=string>2011-12-15T08:28:00Z</DateUtc></StartTime><FrequencyChanges><FrequencyChange><Frequency dt:dt=r8>2593230000</Frequency><Timestamp dt:dt=r8>3923494318198</Timestamp><Current dt:dt=r8>0</Current><DateUtc dt:dt=string>2011-12-15T08:28:00Z</DateUtc></FrequencyChange></FrequencyChanges></Clock>\n	15.12.11 9:28	85.032	1	-1593549955	12-15-2011	9:28:00	8:28:00	2	Experiment	WholeExperiment	NA	2	1	2	2		2	1	2		NA	NA	NA	NA	NA	NA	NA	NA		NA	NA	NA	Block2	Blocks		NA		NA	NA	NA		NA	NA	NA		NA	NA	NA		NA	NA	NA	NA		NA	NA	NA	NA	NA		NA	NA	NA	NA	NA		NA	NA	NA	5	wavs\04_a_ca_lit.wav	NA	NA	NA	5	1	5	a_ca_lit	3	638441	0	0	4	0	0	0	pictures\ae_04	Uncover7	Block2List	Alle Würfel sind mit mindestens drei ihrer Kreise verbunden.	634172	k	775	0	635001	k	528	0	635577	j	2828	0	0	0	0	NA	NA	0	0	0	NA	NA	NA	0	0	0	NA	NA	0	0	0	0	NA	NA	NA	NA	NA	NA	NA	-3experiment_aud_3_1_1	17	17	<?xml version=1.0?>\n<Clock xmlns:dt=urn:schemas-microsoft-com:datatypes><Description dt:dt=string>E-Prime Primary Realtime Clock</Description><StartTime><Timestamp dt:dt=int>0</Timestamp><DateUtc dt:dt=string>2011-12-15T08:28:00Z</DateUtc></StartTime><FrequencyChanges><FrequencyChange><Frequency dt:dt=r8>2593230000</Frequency><Timestamp dt:dt=r8>3923494318198</Timestamp><Current dt:dt=r8>0</Current><DateUtc dt:dt=string>2011-12-15T08:28:00Z</DateUtc></FrequencyChange></FrequencyChanges></Clock>\n	15.12.11 9:28	85.032	1	-1593549955	12-15-2011	9:28:00	8:28:00	2	Experiment	WholeExperiment	NA	2	1	2	2		2	1	2		NA	NA	NA	NA	NA	NA	NA	NA		NA	NA	NA	Block2	Blocks		NA		NA	NA	NA		NA	NA	NA		NA	NA	NA		NA	NA	NA	NA		NA	NA	NA	NA	NA		NA	NA	NA	NA	NA		NA	NA	NA	6	wavs\06_a_ca_lit.wav	NA	NA	NA	6	1	6	a_ca_lit	3	650057	0	0	6	0	0	0	pictures\ae_06	Uncover7	Block2List	Alle Glocken sind mit mindestens drei ihrer Dreiecke verbunden.	643259	k	1328	0	644633	k	460	0	645129	f	284	1	0	0	0	NA	NA	0	0	0	NA	NA	NA	0	0	0	NA	NA	0	0	0	0	NA	1	NA	NA	NA	NA	NA	3experiment_aud_3_1_1	17	17	<?xml version=1.0?>\n<Clock xmlns:dt=urn:schemas-microsoft-com:datatypes><Description dt:dt=string>E-Prime Primary Realtime Clock</Description><StartTime><Timestamp dt:dt=int>0</Timestamp><DateUtc dt:dt=string>2011-12-15T08:28:00Z</DateUtc></StartTime><FrequencyChanges><FrequencyChange><Frequency dt:dt=r8>2593230000</Frequency><Timestamp dt:dt=r8>3923494318198</Timestamp><Current dt:dt=r8>0</Current><DateUtc dt:dt=string>2011-12-15T08:28:00Z</DateUtc></FrequencyChange></FrequencyChanges></Clock>\n	15.12.11 9:28	85.032	1	-1593549955	12-15-2011	9:28:00	8:28:00	2	Experiment	WholeExperiment	NA	2	1	2	2		2	1	2		NA	NA	NA	NA	NA	NA	NA	NA		NA	NA	NA	Block2	Blocks		NA		NA	NA	NA		NA	NA	NA		NA	NA	NA		NA	NA	NA	NA		NA	NA	NA	NA	NA		NA	NA	NA	NA	NA		NA	NA	NA	7	wavs\08_a_ca_loc.wav	NA	NA	NA	7	1	7	a_ca_loc	-7	667785	0	0	8	0	0	0	pictures\ae_08	Uncover7	Block2List	Jeder Stift ist mit mindestens vier seiner Fünfecke verbunden.	654514	k	1051	1	662361	k	922	0	663336	k	625	0	663992	k	575	0	NA	664600	k	752	NA	0	NA	665400	k	812	NA	0	0	666248	j	1501	0	1	NA	NA	NA	NA	NA	-7experiment_aud_3_1_1	17	17	<?xml version=1.0?>\n<Clock xmlns:dt=urn:schemas-microsoft-com:datatypes><Description dt:dt=string>E-Prime Primary Realtime Clock</Description><StartTime><Timestamp dt:dt=int>0</Timestamp><DateUtc dt:dt=string>2011-12-15T08:28:00Z</DateUtc></StartTime><FrequencyChanges><FrequencyChange><Frequency dt:dt=r8>2593230000</Frequency><Timestamp dt:dt=r8>3923494318198</Timestamp><Current dt:dt=r8>0</Current><DateUtc dt:dt=string>2011-12-15T08:28:00Z</DateUtc></FrequencyChange></FrequencyChanges></Clock>\n	15.12.11 9:28	85.032	1	-1593549955	12-15-2011	9:28:00	8:28:00	2	Experiment	WholeExperiment	NA	2	1	2	2		2	1	2		NA	NA	NA	NA	NA	NA	NA	NA		NA	NA	NA	Block2	Blocks		NA		NA	NA	NA		NA	NA	NA		NA	NA	NA		NA	NA	NA	NA		NA	NA	NA	NA	NA		NA	NA	NA	NA	NA		NA	NA	NA	8	wavs\01_a_cg_glb.wav	NA	NA	NA	8	1	8	a_cg_glb	-2	676921	0	0	1	0	0	0	pictures\ge_01	Uncover5	Block2List	Alle Glocken sind mit weniger als vier ihrer Halbkreise verbunden. 	673914	k	1293	0	675257	j	1628	0	0	0	0	NA	0	0	0	NA	0	0	0	0	0	NA	NA	0		NA	NA	NA	NA	0		NA	NA	1	NA	NA	NA	NA	NA	-2experiment_aud_3_1_1	17	17	<?xml version=1.0?>\n<Clock xmlns:dt=urn:schemas-microsoft-com:datatypes><Description dt:dt=string>E-Prime Primary Realtime Clock</Description><StartTime><Timestamp dt:dt=int>0</Timestamp><DateUtc dt:dt=string>2011-12-15T08:28:00Z</DateUtc></StartTime><FrequencyChanges><FrequencyChange><Frequency dt:dt=r8>2593230000</Frequency><Timestamp dt:dt=r8>3923494318198</Timestamp><Current dt:dt=r8>0</Current><DateUtc dt:dt=string>2011-12-15T08:28:00Z</DateUtc></FrequencyChange></FrequencyChanges></Clock>\n	15.12.11 9:28	85.032	1	-1593549955	12-15-2011	9:28:00	8:28:00	2	Experiment	WholeExperiment	NA	2	1	2	2		2	1	2		NA	NA	NA	NA	NA	NA	NA	NA		NA	NA	NA	Block2	Blocks		NA		NA	NA	NA		NA	NA	NA		NA	NA	NA		NA	NA	NA	NA		NA	NA	NA	NA	NA		NA	NA	NA	NA	NA		NA	NA	NA	9	wavs\03_a_cg_glb.wav	NA	NA	NA	9	1	9	a_cg_glb	-2	684041	0	0	3	0	0	0	pictures\ge_03	Uncover5	Block2List	Alle Würfel sind mit weniger als vier ihrer Fünfecke verbunden. 	681050	k	1778	0	682857	j	1150	0	0	0	0	NA	0	0	0	NA	0	0	0	0	0	NA	NA	0		NA	NA	NA	NA	0		NA	NA	1	NA	NA	NA	NA	NA	-2experiment_aud_3_1_1	17	17	<?xml version=1.0?>\n<Clock xmlns:dt=urn:schemas-microsoft-com:datatypes><Description dt:dt=string>E-Prime Primary Realtime Clock</Description><StartTime><Timestamp dt:dt=int>0</Timestamp><DateUtc dt:dt=string>2011-12-15T08:28:00Z</DateUtc></StartTime><FrequencyChanges><FrequencyChange><Frequency dt:dt=r8>2593230000</Frequency><Timestamp dt:dt=r8>3923494318198</Timestamp><Current dt:dt=r8>0</Current><DateUtc dt:dt=string>2011-12-15T08:28:00Z</DateUtc></FrequencyChange></FrequencyChanges></Clock>\n	15.12.11 9:28	85.032	1	-1593549955	12-15-2011	9:28:00	8:28:00	2	Experiment	WholeExperiment	NA	2	1	2	2		2	1	2		NA	NA	NA	NA	NA	NA	NA	NA		NA	NA	NA	Block2	Blocks		NA		NA	NA	NA		NA	NA	NA		NA	NA	NA		NA	NA	NA	NA		NA	NA	NA	NA	NA		NA	NA	NA	NA	NA		NA	NA	NA	10	wavs\05_a_cg_lit.wav	NA	NA	NA	10	1	10	a_cg_lit	-3	691113	0	0	5	0	0	0	pictures\ge_05	Uncover5	Block2List	Alle Stifte sind mit allen ihren Dreiecken verbunden.	688314	k	418	0	688776	k	1251	0	690057	j	1025	0	0	0	0	NA	0	0	0	0	0	NA	NA	0		NA	NA	NA	NA	0		NA	NA	1	NA	NA	NA	NA	NA	-3experiment_aud_3_1_1	17	17	<?xml version=1.0?>\n<Clock xmlns:dt=urn:schemas-microsoft-com:datatypes><Description dt:dt=string>E-Prime Primary Realtime Clock</Description><StartTime><Timestamp dt:dt=int>0</Timestamp><DateUtc dt:dt=string>2011-12-15T08:28:00Z</DateUtc></StartTime><FrequencyChanges><FrequencyChange><Frequency dt:dt=r8>2593230000</Frequency><Timestamp dt:dt=r8>3923494318198</Timestamp><Current dt:dt=r8>0</Current><DateUtc dt:dt=string>2011-12-15T08:28:00Z</DateUtc></FrequencyChange></FrequencyChanges></Clock>\n	15.12.11 9:28	85.032	1	-1593549955	12-15-2011	9:28:00	8:28:00	2	Experiment	WholeExperiment	NA	2	1	2	2		2	1	2		NA	NA	NA	NA	NA	NA	NA	NA		NA	NA	NA	Block2	Blocks		NA		NA	NA	NA		NA	NA	NA		NA	NA	NA		NA	NA	NA	NA		NA	NA	NA	NA	NA		NA	NA	NA	NA	NA		NA	NA	NA	11	wavs\07_a_cg_loc.wav	NA	NA	NA	11	1	11	a_cg_loc	5	704184	0	0	7	0	0	0	pictures\ge_07	Uncover5	Block2List	Mindestens drei Glocken sind mit allen ihren Kreisen verbunden.	694840	k	1359	0	696233	k	1395	0	697656	k	788	0	698472	k	797	0	0	699304	f	279	1	NA	NA	0		NA	NA	NA	NA	0		NA	NA	NA	NA	NA	NA	NA	NA	5experiment_aud_3_1_1	17	17	<?xml version=1.0?>\n<Clock xmlns:dt=urn:schemas-microsoft-com:datatypes><Description dt:dt=string>E-Prime Primary Realtime Clock</Description><StartTime><Timestamp dt:dt=int>0</Timestamp><DateUtc dt:dt=string>2011-12-15T08:28:00Z</DateUtc></StartTime><FrequencyChanges><FrequencyChange><Frequency dt:dt=r8>2593230000</Frequency><Timestamp dt:dt=r8>3923494318198</Timestamp><Current dt:dt=r8>0</Current><DateUtc dt:dt=string>2011-12-15T08:28:00Z</DateUtc></FrequencyChange></FrequencyChanges></Clock>\n	15.12.11 9:28	85.032	1	-1593549955	12-15-2011	9:28:00	8:28:00	2	Experiment	WholeExperiment	NA	2	1	2	2		2	1	2		NA	NA	NA	NA	NA	NA	NA	NA		NA	NA	NA	Block2	Blocks		NA		NA	NA	NA		NA	NA	NA		NA	NA	NA		NA	NA	NA	NA		NA	NA	NA	NA	NA		NA	NA	NA	NA	NA		NA	NA	NA	12	wavs\09_a_cg_loc.wav	NA	NA	NA	12	1	12	a_cg_loc	5	712552	0	0	9	0	0	0	pictures\ge_09	Uncover5	Block2List	Mindestens drei Würfel sind mit allen ihren Quadraten verbunden.	708234	k	944	0	709223	k	528	0	709784	k	855	0	710665	k	613	0	0	711304	f	1214	0	NA	NA	0		NA	NA	NA	NA	0		NA	NA	NA	NA	NA	NA	NA	NA	5experiment_aud_3_1_1	17	17	<?xml version=1.0?>\n<Clock xmlns:dt=urn:schemas-microsoft-com:datatypes><Description dt:dt=string>E-Prime Primary Realtime Clock</Description><StartTime><Timestamp dt:dt=int>0</Timestamp><DateUtc dt:dt=string>2011-12-15T08:28:00Z</DateUtc></StartTime><FrequencyChanges><FrequencyChange><Frequency dt:dt=r8>2593230000</Frequency><Timestamp dt:dt=r8>3923494318198</Timestamp><Current dt:dt=r8>0</Current><DateUtc dt:dt=string>2011-12-15T08:28:00Z</DateUtc></FrequencyChange></FrequencyChanges></Clock>\n	15.12.11 9:28	85.032	1	-1593549955	12-15-2011	9:28:00	8:28:00	2	Experiment	WholeExperiment	NA	2	1	2	2		2	1	2		NA	NA	NA	NA	NA	NA	NA	NA		NA	NA	NA	Block2	Blocks		NA		NA	NA	NA		NA	NA	NA		NA	NA	NA		NA	NA	NA	NA		NA	NA	NA	NA	NA		NA	NA	NA	NA	NA		NA	NA	NA	13	wavs\14_a_ge_akz.wav	NA	NA	NA	13	1	13	a_ge_akz	0	719208	0	-3	14	0	5	-2	pictures\ge_14	Uncover5	Block2List	Genau einer der Würfel ist mit nur einigen seiner Quadrate verbunden.	717243	k	604	0	717880	k	529	0	718439	j	732	0	0	0	0	NA	0	0	0	0	0	NA	NA	0		NA	NA	NA	NA	0		NA	NA	NA	NA	1	NA	NA	NA	-3experiment_aud_3_1_1	17	17	<?xml version=1.0?>\n<Clock xmlns:dt=urn:schemas-microsoft-com:datatypes><Description dt:dt=string>E-Prime Primary Realtime Clock</Description><StartTime><Timestamp dt:dt=int>0</Timestamp><DateUtc dt:dt=string>2011-12-15T08:28:00Z</DateUtc></StartTime><FrequencyChanges><FrequencyChange><Frequency dt:dt=r8>2593230000</Frequency><Timestamp dt:dt=r8>3923494318198</Timestamp><Current dt:dt=r8>0</Current><DateUtc dt:dt=string>2011-12-15T08:28:00Z</DateUtc></FrequencyChange></FrequencyChanges></Clock>\n	15.12.11 9:28	85.032	1	-1593549955	12-15-2011	9:28:00	8:28:00	2	Experiment	WholeExperiment	NA	2	1	2	2		2	1	2		NA	NA	NA	NA	NA	NA	NA	NA		NA	NA	NA	Block2	Blocks		NA		NA	NA	NA		NA	NA	NA		NA	NA	NA		NA	NA	NA	NA		NA	NA	NA	NA	NA		NA	NA	NA	NA	NA		NA	NA	NA	14	wavs\10_a_ge_ntr.wav	NA	NA	NA	14	1	14	a_ge_ntr	0	728168	0	-3	10	0	5	-2	pictures\ge_10	Uncover5	Block2List	Genau einer der Blitze ist mit einigen seiner Dreiecke verbunden.	723541	k	2360	0	725928	k	645	0	726599	j	1542	0	0	0	0	NA	0	0	0	0	0	NA	NA	0		NA	NA	NA	NA	0		NA	NA	NA	NA	1	NA	NA	NA	-3experiment_aud_3_1_1	17	17	<?xml version=1.0?>\n<Clock xmlns:dt=urn:schemas-microsoft-com:datatypes><Description dt:dt=string>E-Prime Primary Realtime Clock</Description><StartTime><Timestamp dt:dt=int>0</Timestamp><DateUtc dt:dt=string>2011-12-15T08:28:00Z</DateUtc></StartTime><FrequencyChanges><FrequencyChange><Frequency dt:dt=r8>2593230000</Frequency><Timestamp dt:dt=r8>3923494318198</Timestamp><Current dt:dt=r8>0</Current><DateUtc dt:dt=string>2011-12-15T08:28:00Z</DateUtc></FrequencyChange></FrequencyChanges></Clock>\n	15.12.11 9:28	85.032	1	-1593549955	12-15-2011	9:28:00	8:28:00	2	Experiment	WholeExperiment	NA	2	1	2	2		2	1	2		NA	NA	NA	NA	NA	NA	NA	NA		NA	NA	NA	Block2	Blocks		NA		NA	NA	NA		NA	NA	NA		NA	NA	NA		NA	NA	NA	NA		NA	NA	NA	NA	NA		NA	NA	NA	NA	NA		NA	NA	NA	15	wavs\12_a_ge_ntr.wav	NA	NA	NA	15	1	15	a_ge_ntr	0	734232	0	-3	12	0	5	-2	pictures\ge_12	Uncover5	Block2List	Genau einer der Briefe ist mit einigen seiner Kreise verbunden.	732379	k	748	0	733159	k	372	0	733559	j	644	0	0	0	0	NA	0	0	0	0	0	NA	NA	0		NA	NA	NA	NA	0		NA	NA	NA	NA	1	NA	NA	NA	-3experiment_aud_3_1_1	17	17	<?xml version=1.0?>\n<Clock xmlns:dt=urn:schemas-microsoft-com:datatypes><Description dt:dt=string>E-Prime Primary Realtime Clock</Description><StartTime><Timestamp dt:dt=int>0</Timestamp><DateUtc dt:dt=string>2011-12-15T08:28:00Z</DateUtc></StartTime><FrequencyChanges><FrequencyChange><Frequency dt:dt=r8>2593230000</Frequency><Timestamp dt:dt=r8>3923494318198</Timestamp><Current dt:dt=r8>0</Current><DateUtc dt:dt=string>2011-12-15T08:28:00Z</DateUtc></FrequencyChange></FrequencyChanges></Clock>\n	15.12.11 9:28	85.032	1	-1593549955	12-15-2011	9:28:00	8:28:00	2	Experiment	WholeExperiment	NA	2	1	2	2		2	1	2		NA	NA	NA	NA	NA	NA	NA	NA		NA	NA	NA	Block2	Blocks		NA		NA	NA	NA		NA	NA	NA		NA	NA	NA		NA	NA	NA	NA		NA	NA	NA	NA	NA		NA	NA	NA	NA	NA		NA	NA	NA	16	wavs\03_a_rf_fff.wav	NA	NA	NA	16	1	16	a_rf_fff	6	749879	0	0	3	0	0	0	pictures\rf_03	Uncover6	Block2List	Jede Glocke ist mit der Hälfte ihrer Fünfecke verbunden.	738236	k	3023	0	741303	k	749	0	742087	k	949	0	743063	k	3557	0	NA	746648	k	1346	NA	0	0	748023	f	1826	0	NA	NA	0		NA	NA	NA	NA	NA	NA	NA	NA	6experiment_aud_3_1_1	17	17	<?xml version=1.0?>\n<Clock xmlns:dt=urn:schemas-microsoft-com:datatypes><Description dt:dt=string>E-Prime Primary Realtime Clock</Description><StartTime><Timestamp dt:dt=int>0</Timestamp><DateUtc dt:dt=string>2011-12-15T08:28:00Z</DateUtc></StartTime><FrequencyChanges><FrequencyChange><Frequency dt:dt=r8>2593230000</Frequency><Timestamp dt:dt=r8>3923494318198</Timestamp><Current dt:dt=r8>0</Current><DateUtc dt:dt=string>2011-12-15T08:28:00Z</DateUtc></FrequencyChange></FrequencyChanges></Clock>\n	15.12.11 9:28	85.032	1	-1593549955	12-15-2011	9:28:00	8:28:00	2	Experiment	WholeExperiment	NA	2	1	2	2		2	1	2		NA	NA	NA	NA	NA	NA	NA	NA		NA	NA	NA	Block2	Blocks		NA		NA	NA	NA		NA	NA	NA		NA	NA	NA		NA	NA	NA	NA		NA	NA	NA	NA	NA		NA	NA	NA	NA	NA		NA	NA	NA	17	wavs\05_a_rf_fff.wav	NA	NA	NA	17	1	17	a_rf_fff	6	758359	0	0	5	0	0	0	pictures\rf_05	Uncover6	Block2List	Jede Schere hat Verbindungen.	752064	k	1221	0	753319	k	406	0	753751	k	899	0	754679	k	1298	0	NA	756007	k	657	NA	0	0	756695	f	1627	0	NA	NA	0		NA	NA	NA	NA	NA	NA	NA	NA	6experiment_aud_3_1_1	17	17	<?xml version=1.0?>\n<Clock xmlns:dt=urn:schemas-microsoft-com:datatypes><Description dt:dt=string>E-Prime Primary Realtime Clock</Description><StartTime><Timestamp dt:dt=int>0</Timestamp><DateUtc dt:dt=string>2011-12-15T08:28:00Z</DateUtc></StartTime><FrequencyChanges><FrequencyChange><Frequency dt:dt=r8>2593230000</Frequency><Timestamp dt:dt=r8>3923494318198</Timestamp><Current dt:dt=r8>0</Current><DateUtc dt:dt=string>2011-12-15T08:28:00Z</DateUtc></FrequencyChange></FrequencyChanges></Clock>\n	15.12.11 9:28	85.032	1	-1593549955	12-15-2011	9:28:00	8:28:00	2	Experiment	WholeExperiment	NA	2	1	2	2		2	1	2		NA	NA	NA	NA	NA	NA	NA	NA		NA	NA	NA	Block2	Blocks		NA		NA	NA	NA		NA	NA	NA		NA	NA	NA		NA	NA	NA	NA		NA	NA	NA	NA	NA		NA	NA	NA	NA	NA		NA	NA	NA	18	wavs\07_a_rf_fff.wav	NA	NA	NA	18	1	18	a_rf_fff	-4	770391	0	0	7	0	0	0	pictures\rf_07	Uncover6	Block2List	Kein Brief ist mit einigen Quadraten verbunden.	761448	k	5696	0	767192	k	465	0	767686	k	1299	0	769014	j	1346	0	NA	0	0	0	NA	NA	0	0	0	0	0	NA	NA	0		NA	NA	1	NA	NA	NA	NA	NA	-4experiment_aud_3_1_1	17	17	<?xml version=1.0?>\n<Clock xmlns:dt=urn:schemas-microsoft-com:datatypes><Description dt:dt=string>E-Prime Primary Realtime Clock</Description><StartTime><Timestamp dt:dt=int>0</Timestamp><DateUtc dt:dt=string>2011-12-15T08:28:00Z</DateUtc></StartTime><FrequencyChanges><FrequencyChange><Frequency dt:dt=r8>2593230000</Frequency><Timestamp dt:dt=r8>3923494318198</Timestamp><Current dt:dt=r8>0</Current><DateUtc dt:dt=string>2011-12-15T08:28:00Z</DateUtc></FrequencyChange></FrequencyChanges></Clock>\n	15.12.11 9:28	85.032	1	-1593549955	12-15-2011	9:28:00	8:28:00	2	Experiment	WholeExperiment	NA	2	1	2	2		2	1	2		NA	NA	NA	NA	NA	NA	NA	NA		NA	NA	NA	Block2	Blocks		NA		NA	NA	NA		NA	NA	NA		NA	NA	NA		NA	NA	NA	NA		NA	NA	NA	NA	NA		NA	NA	NA	NA	NA		NA	NA	NA	19	wavs\10_a_rf_fff.wav	NA	NA	NA	19	1	19	a_rf_fff	3	778855	0	0	10	0	0	0	pictures\rf_10	Uncover6	Block2List	Einige Glocken sind mit genau sechs Kreisen verbunden.	774575	k	1127	0	775735	k	1067	0	776839	f	1989	0	0	0	0	NA	NA	0	0	0	NA	NA	0	0	0	0	0	NA	NA	0		NA	NA	1	NA	NA	NA	NA	NA	3experiment_aud_3_1_1	17	17	<?xml version=1.0?>\n<Clock xmlns:dt=urn:schemas-microsoft-com:datatypes><Description dt:dt=string>E-Prime Primary Realtime Clock</Description><StartTime><Timestamp dt:dt=int>0</Timestamp><DateUtc dt:dt=string>2011-12-15T08:28:00Z</DateUtc></StartTime><FrequencyChanges><FrequencyChange><Frequency dt:dt=r8>2593230000</Frequency><Timestamp dt:dt=r8>3923494318198</Timestamp><Current dt:dt=r8>0</Current><DateUtc dt:dt=string>2011-12-15T08:28:00Z</DateUtc></FrequencyChange></FrequencyChanges></Clock>\n	15.12.11 9:28	85.032	1	-1593549955	12-15-2011	9:28:00	8:28:00	2	Experiment	WholeExperiment	NA	2	1	2	2		2	1	2		NA	NA	NA	NA	NA	NA	NA	NA		NA	NA	NA	Block2	Blocks		NA		NA	NA	NA		NA	NA	NA		NA	NA	NA		NA	NA	NA	NA		NA	NA	NA	NA	NA		NA	NA	NA	NA	NA		NA	NA	NA	20	wavs\13_a_rf_fff.wav	NA	NA	NA	20	1	20	a_rf_fff	3	786455	0	0	13	0	0	0	pictures\rf_13	Uncover5	Block2List	Einige Blitze sind mit Kreisen und Dreiecken verbunden.	782601	k	1383	0	784022	k	724	0	784774	k	643	0	785446	f	981	0	0	0	0	0	0	NA	NA	0		NA	NA	NA	NA	0		NA	NA	NA	NA	NA	NA	NA	NA	4experiment_aud_3_1_1	17	17	<?xml version=1.0?>\n<Clock xmlns:dt=urn:schemas-microsoft-com:datatypes><Description dt:dt=string>E-Prime Primary Realtime Clock</Description><StartTime><Timestamp dt:dt=int>0</Timestamp><DateUtc dt:dt=string>2011-12-15T08:28:00Z</DateUtc></StartTime><FrequencyChanges><FrequencyChange><Frequency dt:dt=r8>2593230000</Frequency><Timestamp dt:dt=r8>3923494318198</Timestamp><Current dt:dt=r8>0</Current><DateUtc dt:dt=string>2011-12-15T08:28:00Z</DateUtc></FrequencyChange></FrequencyChanges></Clock>\n	15.12.11 9:28	85.032	1	-1593549955	12-15-2011	9:28:00	8:28:00	2	Experiment	WholeExperiment	NA	2	1	2	2		2	1	2		NA	NA	NA	NA	NA	NA	NA	NA		NA	NA	NA	Block2	Blocks		NA		NA	NA	NA		NA	NA	NA		NA	NA	NA		NA	NA	NA	NA		NA	NA	NA	NA	NA		NA	NA	NA	NA	NA		NA	NA	NA	21	wavs\15_a_rf_fff.wav	NA	NA	NA	21	1	21	a_rf_fff	4	798055	0	0	15	0	0	0	pictures\rf_15	Uncover5	Block2List	Einige Würfel sind mit Achtecken und Quadraten verbunden.	791443	k	2827	0	794311	k	645	0	794998	k	507	0	795542	f	2478	0	0	0	0	0	0	NA	NA	0		NA	NA	NA	NA	0		NA	NA	1	NA	NA	NA	NA	NA	4experiment_aud_3_1_1	17	17	<?xml version=1.0?>\n<Clock xmlns:dt=urn:schemas-microsoft-com:datatypes><Description dt:dt=string>E-Prime Primary Realtime Clock</Description><StartTime><Timestamp dt:dt=int>0</Timestamp><DateUtc dt:dt=string>2011-12-15T08:28:00Z</DateUtc></StartTime><FrequencyChanges><FrequencyChange><Frequency dt:dt=r8>2593230000</Frequency><Timestamp dt:dt=r8>3923494318198</Timestamp><Current dt:dt=r8>0</Current><DateUtc dt:dt=string>2011-12-15T08:28:00Z</DateUtc></FrequencyChange></FrequencyChanges></Clock>\n	15.12.11 9:28	85.032	1	-1593549955	12-15-2011	9:28:00	8:28:00	2	Experiment	WholeExperiment	NA	2	1	2	2		2	1	2		NA	NA	NA	NA	NA	NA	NA	NA		NA	NA	NA	Block2	Blocks		NA		NA	NA	NA		NA	NA	NA		NA	NA	NA		NA	NA	NA	NA		NA	NA	NA	NA	NA		NA	NA	NA	NA	NA		NA	NA	NA	22	wavs\18_a_rf_fff.wav	NA	NA	NA	22	1	22	a_rf_fff	-4	811352	0	0	18	0	0	0	pictures\rf_18	Uncover5	Block2List	Die Hälfte der Würfel hat mehr als vier Verbindungen.	800838	k	2646	0	803527	k	685	0	804246	k	1967	0	806246	j	5072	0	0	0	0	0	0	NA	NA	0		NA	NA	NA	NA	0		NA	NA	1	NA	NA	NA	NA	NA	-4experiment_aud_3_1_1	17	17	<?xml version=1.0?>\n<Clock xmlns:dt=urn:schemas-microsoft-com:datatypes><Description dt:dt=string>E-Prime Primary Realtime Clock</Description><StartTime><Timestamp dt:dt=int>0</Timestamp><DateUtc dt:dt=string>2011-12-15T08:28:00Z</DateUtc></StartTime><FrequencyChanges><FrequencyChange><Frequency dt:dt=r8>2593230000</Frequency><Timestamp dt:dt=r8>3923494318198</Timestamp><Current dt:dt=r8>0</Current><DateUtc dt:dt=string>2011-12-15T08:28:00Z</DateUtc></FrequencyChange></FrequencyChanges></Clock>\n	15.12.11 9:28	85.032	1	-1593549955	12-15-2011	9:28:00	8:28:00	2	Experiment	WholeExperiment	NA	2	1	2	2		2	1	2		NA	NA	NA	NA	NA	NA	NA	NA		NA	NA	NA	Block2	Blocks		NA		NA	NA	NA		NA	NA	NA		NA	NA	NA		NA	NA	NA	NA		NA	NA	NA	NA	NA		NA	NA	NA	NA	NA		NA	NA	NA	23	wavs\20_a_rf_fff.wav	NA	NA	NA	23	1	23	a_rf_fff	4	826806	0	0	20	0	0	0	pictures\rf_20	Uncover5	Block2List	Die Hälfte der Glocken ist mit genau zwei ihrer Kreise verbunden.	816955	k	2215	0	819206	k	480	0	819718	k	2251	0	822007	k	2305	0	0	824342	f	2429	0	NA	NA	0		NA	NA	NA	NA	0		NA	NA	NA	NA	NA	NA	NA	NA	5experiment_aud_3_1_1	17	17	<?xml version=1.0?>\n<Clock xmlns:dt=urn:schemas-microsoft-com:datatypes><Description dt:dt=string>E-Prime Primary Realtime Clock</Description><StartTime><Timestamp dt:dt=int>0</Timestamp><DateUtc dt:dt=string>2011-12-15T08:28:00Z</DateUtc></StartTime><FrequencyChanges><FrequencyChange><Frequency dt:dt=r8>2593230000</Frequency><Timestamp dt:dt=r8>3923494318198</Timestamp><Current dt:dt=r8>0</Current><DateUtc dt:dt=string>2011-12-15T08:28:00Z</DateUtc></FrequencyChange></FrequencyChanges></Clock>\n	15.12.11 9:28	85.032	1	-1593549955	12-15-2011	9:28:00	8:28:00	2	Experiment	WholeExperiment	NA	2	1	2	2		2	1	2		NA	NA	NA	NA	NA	NA	NA	NA		NA	NA	NA	Block2	Blocks		NA		NA	NA	NA		NA	NA	NA		NA	NA	NA		NA	NA	NA	NA		NA	NA	NA	NA	NA		NA	NA	NA	NA	NA		NA	NA	NA	24	wavs\23_a_rf_fff.wav	NA	NA	NA	24	1	24	a_rf_fff	-1	835111	0	0	23	0	0	0	pictures\rf_23	Uncover6	Block2List	Mehr als zwei Blitze sind mit genau einem Dreieck verbunden.	830999	j	4065	0	0	0	0	NA	0	0	0	NA	0	0	0	NA	NA	0	0	0	NA	NA	0	0	0	0	0	NA	NA	0		NA	NA	1	NA	NA	NA	NA	NA	-1experiment_aud_3_1_1	17	17	<?xml version=1.0?>\n<Clock xmlns:dt=urn:schemas-microsoft-com:datatypes><Description dt:dt=string>E-Prime Primary Realtime Clock</Description><StartTime><Timestamp dt:dt=int>0</Timestamp><DateUtc dt:dt=string>2011-12-15T08:28:00Z</DateUtc></StartTime><FrequencyChanges><FrequencyChange><Frequency dt:dt=r8>2593230000</Frequency><Timestamp dt:dt=r8>3923494318198</Timestamp><Current dt:dt=r8>0</Current><DateUtc dt:dt=string>2011-12-15T08:28:00Z</DateUtc></FrequencyChange></FrequencyChanges></Clock>\n	15.12.11 9:28	85.032	1	-1593549955	12-15-2011	9:28:00	8:28:00	2	Experiment	WholeExperiment	NA	2	1	2	2		2	1	2		NA	NA	NA	NA	NA	NA	NA	NA		NA	NA	NA	Block2	Blocks		NA		NA	NA	NA		NA	NA	NA		NA	NA	NA		NA	NA	NA	NA		NA	NA	NA	NA	NA		NA	NA	NA	NA	NA		NA	NA	NA	25	wavs\27_a_rf_fff.wav	NA	NA	NA	25	1	25	a_rf_fff	-7	848294	0	0	27	0	0	0	pictures\rf_27	Uncover7	Block2List	Alle Scheren, die mit einem Fünfeck verbunden sind, sind blau.	839565	k	3204	0	842821	k	498	0	843351	k	1057	0	844437	k	742	0	NA	845205	k	895	NA	0	NA	846133	k	669	NA	0	0	846837	j	1431	0	1	NA	NA	NA	NA	NA	-7experiment_aud_3_1_1	17	17	<?xml version=1.0?>\n<Clock xmlns:dt=urn:schemas-microsoft-com:datatypes><Description dt:dt=string>E-Prime Primary Realtime Clock</Description><StartTime><Timestamp dt:dt=int>0</Timestamp><DateUtc dt:dt=string>2011-12-15T08:28:00Z</DateUtc></StartTime><FrequencyChanges><FrequencyChange><Frequency dt:dt=r8>2593230000</Frequency><Timestamp dt:dt=r8>3923494318198</Timestamp><Current dt:dt=r8>0</Current><DateUtc dt:dt=string>2011-12-15T08:28:00Z</DateUtc></FrequencyChange></FrequencyChanges></Clock>\n	15.12.11 9:28	85.032	1	-1593549955	12-15-2011	9:28:00	8:28:00	2	Experiment	WholeExperiment	NA	2	1	2	2		2	1	2		NA	NA	NA	NA	NA	NA	NA	NA		NA	NA	NA	Block2	Blocks		NA		NA	NA	NA		NA	NA	NA		NA	NA	NA		NA	NA	NA	NA		NA	NA	NA	NA	NA		NA	NA	NA	NA	NA		NA	NA	NA	26	wavs\02_a_tf_axe.wav	NA	NA	NA	27	1	26	a_tf_aee	0	861925	-3	0	2	5	0	0	pictures\ec_02	Uncover5	Block2List	Der Brief ist mit Halbkreisen und Sechsecken mit Monden verbunden.	853374	k	4544	0	857958	k	321	0	858309	k	1825	0	860165	k	511	0	0	860709	f	1186	0	NA	NA	0		NA	NA	NA	NA	0		NA	NA	NA	NA	NA	NA	NA	NA	5experiment_aud_3_1_1	17	17	<?xml version=1.0?>\n<Clock xmlns:dt=urn:schemas-microsoft-com:datatypes><Description dt:dt=string>E-Prime Primary Realtime Clock</Description><StartTime><Timestamp dt:dt=int>0</Timestamp><DateUtc dt:dt=string>2011-12-15T08:28:00Z</DateUtc></StartTime><FrequencyChanges><FrequencyChange><Frequency dt:dt=r8>2593230000</Frequency><Timestamp dt:dt=r8>3923494318198</Timestamp><Current dt:dt=r8>0</Current><DateUtc dt:dt=string>2011-12-15T08:28:00Z</DateUtc></FrequencyChange></FrequencyChanges></Clock>\n	15.12.11 9:28	85.032	1	-1593549955	12-15-2011	9:28:00	8:28:00	2	Experiment	WholeExperiment	NA	2	1	2	2		2	1	2		NA	NA	NA	NA	NA	NA	NA	NA		NA	NA	NA	Block2	Blocks		NA		NA	NA	NA		NA	NA	NA		NA	NA	NA		NA	NA	NA	NA		NA	NA	NA	NA	NA		NA	NA	NA	NA	NA		NA	NA	NA	27	wavs\04_a_tf_axl.wav	NA	NA	NA	28	1	27	a_tf_ael	0	872613	-3	0	4	5	0	0	pictures\ec_04	Uncover5	Block2List	Der Brief ist mit Vierecken und Kreisen mit Sonnen verbunden.	866205	k	3250	0	869493	k	673	0	870197	k	655	0	870885	k	485	0	0	871398	f	1184	0	NA	NA	0		NA	NA	NA	NA	0		NA	NA	NA	NA	NA	NA	NA	NA	5experiment_aud_3_1_1	17	17	<?xml version=1.0?>\n<Clock xmlns:dt=urn:schemas-microsoft-com:datatypes><Description dt:dt=string>E-Prime Primary Realtime Clock</Description><StartTime><Timestamp dt:dt=int>0</Timestamp><DateUtc dt:dt=string>2011-12-15T08:28:00Z</DateUtc></StartTime><FrequencyChanges><FrequencyChange><Frequency dt:dt=r8>2593230000</Frequency><Timestamp dt:dt=r8>3923494318198</Timestamp><Current dt:dt=r8>0</Current><DateUtc dt:dt=string>2011-12-15T08:28:00Z</DateUtc></FrequencyChange></FrequencyChanges></Clock>\n	15.12.11 9:28	85.032	1	-1593549955	12-15-2011	9:28:00	8:28:00	2	Experiment	WholeExperiment	NA	2	1	2	2		2	1	2		NA	NA	NA	NA	NA	NA	NA	NA		NA	NA	NA	Block2	Blocks		NA		NA	NA	NA		NA	NA	NA		NA	NA	NA		NA	NA	NA	NA		NA	NA	NA	NA	NA		NA	NA	NA	NA	NA		NA	NA	NA	28	wavs\06_a_tf_axl.wav	NA	NA	NA	29	1	28	a_tf_ael	0	883461	-3	0	6	5	0	0	pictures\ec_06	Uncover5	Block2List	Der Brief ist mit Achtecken und Dreiecken mit Blitzen verbunden.	877152	k	2497	0	879702	k	705	0	880437	k	1340	0	881813	k	492	0	0	882341	f	1094	0	NA	NA	0		NA	NA	NA	NA	0		NA	NA	NA	NA	NA	NA	NA	NA	5experiment_aud_3_1_1	17	17	<?xml version=1.0?>\n<Clock xmlns:dt=urn:schemas-microsoft-com:datatypes><Description dt:dt=string>E-Prime Primary Realtime Clock</Description><StartTime><Timestamp dt:dt=int>0</Timestamp><DateUtc dt:dt=string>2011-12-15T08:28:00Z</DateUtc></StartTime><FrequencyChanges><FrequencyChange><Frequency dt:dt=r8>2593230000</Frequency><Timestamp dt:dt=r8>3923494318198</Timestamp><Current dt:dt=r8>0</Current><DateUtc dt:dt=string>2011-12-15T08:28:00Z</DateUtc></FrequencyChange></FrequencyChanges></Clock>\n	15.12.11 9:28	85.032	1	-1593549955	12-15-2011	9:28:00	8:28:00	2	Experiment	WholeExperiment	NA	2	1	2	2		2	1	2		NA	NA	NA	NA	NA	NA	NA	NA		NA	NA	NA	Block2	Blocks		NA		NA	NA	NA		NA	NA	NA		NA	NA	NA		NA	NA	NA	NA		NA	NA	NA	NA	NA		NA	NA	NA	NA	NA		NA	NA	NA	29	wavs\08_a_tf_axn.wav	NA	NA	NA	30	1	29	a_tf_aen	0	892231	6	0	8	3	0	0	pictures\ec_08	Uncover5	Block2List	Die Schere ist mit Halbkreisen und Achtecken mit Blumen verbunden.	887851	k	1515	0	889396	k	662	0	890085	j	2113	0	0	0	0	NA	0	0	0	0	0	NA	NA	0		NA	NA	NA	NA	0		NA	NA	NA	NA	NA	NA	NA	NA	-3experiment_aud_3_1_1	17	17	<?xml version=1.0?>\n<Clock xmlns:dt=urn:schemas-microsoft-com:datatypes><Description dt:dt=string>E-Prime Primary Realtime Clock</Description><StartTime><Timestamp dt:dt=int>0</Timestamp><DateUtc dt:dt=string>2011-12-15T08:28:00Z</DateUtc></StartTime><FrequencyChanges><FrequencyChange><Frequency dt:dt=r8>2593230000</Frequency><Timestamp dt:dt=r8>3923494318198</Timestamp><Current dt:dt=r8>0</Current><DateUtc dt:dt=string>2011-12-15T08:28:00Z</DateUtc></FrequencyChange></FrequencyChanges></Clock>\n	15.12.11 9:28	85.032	1	-1593549955	12-15-2011	9:28:00	8:28:00	2	Experiment	WholeExperiment	NA	2	1	2	2		2	1	2		NA	NA	NA	NA	NA	NA	NA	NA		NA	NA	NA	Block2	Blocks		NA		NA	NA	NA		NA	NA	NA		NA	NA	NA		NA	NA	NA	NA		NA	NA	NA	NA	NA		NA	NA	NA	NA	NA		NA	NA	NA	30	wavs\10_a_tf_axn.wav	NA	NA	NA	31	1	30	a_tf_aen	0	900695	6	0	10	3	0	0	pictures\ec_10	Uncover5	Block2List	Die Schere ist mit Sechsecken und Kreisen mit Herzen verbunden.	896450	k	1183	0	897685	k	1059	0	898772	j	1886	0	0	0	0	NA	0	0	0	0	0	NA	NA	0		NA	NA	NA	NA	0		NA	NA	NA	NA	NA	NA	NA	NA	-3experiment_aud_3_1_1	17	17	<?xml version=1.0?>\n<Clock xmlns:dt=urn:schemas-microsoft-com:datatypes><Description dt:dt=string>E-Prime Primary Realtime Clock</Description><StartTime><Timestamp dt:dt=int>0</Timestamp><DateUtc dt:dt=string>2011-12-15T08:28:00Z</DateUtc></StartTime><FrequencyChanges><FrequencyChange><Frequency dt:dt=r8>2593230000</Frequency><Timestamp dt:dt=r8>3923494318198</Timestamp><Current dt:dt=r8>0</Current><DateUtc dt:dt=string>2011-12-15T08:28:00Z</DateUtc></FrequencyChange></FrequencyChanges></Clock>\n	15.12.11 9:28	85.032	1	-1593549955	12-15-2011	9:28:00	8:28:00	2	Experiment	WholeExperiment	NA	2	1	2	2		2	1	2		NA	NA	NA	NA	NA	NA	NA	NA		NA	NA	NA	Block2	Blocks		NA		NA	NA	NA		NA	NA	NA		NA	NA	NA		NA	NA	NA	NA		NA	NA	NA	NA	NA		NA	NA	NA	NA	NA		NA	NA	NA	31	wavs\16_a_tf_axe.wav	NA	NA	NA	32	1	31	a_tf_ale	5	910245	0	0	16	0	0	0	pictures\lc_16	Uncover7	Block2List	Der Stift ist mit Achtecken und Kreisen mit Monden verbunden.	905274	k	1979	0	907302	k	368	0	907700	f	2511	0	0	0	0	NA	NA	0	0	0	NA	NA	NA	0	0	0	NA	NA	0	0	0	0	NA	NA	NA	NA	NA	NA	NA	3experiment_aud_3_1_1	17	17	<?xml version=1.0?>\n<Clock xmlns:dt=urn:schemas-microsoft-com:datatypes><Description dt:dt=string>E-Prime Primary Realtime Clock</Description><StartTime><Timestamp dt:dt=int>0</Timestamp><DateUtc dt:dt=string>2011-12-15T08:28:00Z</DateUtc></StartTime><FrequencyChanges><FrequencyChange><Frequency dt:dt=r8>2593230000</Frequency><Timestamp dt:dt=r8>3923494318198</Timestamp><Current dt:dt=r8>0</Current><DateUtc dt:dt=string>2011-12-15T08:28:00Z</DateUtc></FrequencyChange></FrequencyChanges></Clock>\n	15.12.11 9:28	85.032	1	-1593549955	12-15-2011	9:28:00	8:28:00	2	Experiment	WholeExperiment	NA	2	1	2	2		2	1	2		NA	NA	NA	NA	NA	NA	NA	NA		NA	NA	NA	Block2	Blocks		NA		NA	NA	NA		NA	NA	NA		NA	NA	NA		NA	NA	NA	NA		NA	NA	NA	NA	NA		NA	NA	NA	NA	NA		NA	NA	NA	32	wavs\18_a_tf_axl.wav	NA	NA	NA	33	1	32	a_tf_all	5	919541	0	0	18	0	0	0	pictures\lc_18	Uncover7	Block2List	Der Stift ist mit Sechsecken und Dreiecken mit Sonnen verbunden.	914611	k	2428	0	917076	k	370	0	917476	f	2034	0	0	0	0	NA	NA	0	0	0	NA	NA	NA	0	0	0	NA	NA	0	0	0	0	NA	NA	NA	NA	NA	NA	NA	3experiment_aud_3_1_1	17	17	<?xml version=1.0?>\n<Clock xmlns:dt=urn:schemas-microsoft-com:datatypes><Description dt:dt=string>E-Prime Primary Realtime Clock</Description><StartTime><Timestamp dt:dt=int>0</Timestamp><DateUtc dt:dt=string>2011-12-15T08:28:00Z</DateUtc></StartTime><FrequencyChanges><FrequencyChange><Frequency dt:dt=r8>2593230000</Frequency><Timestamp dt:dt=r8>3923494318198</Timestamp><Current dt:dt=r8>0</Current><DateUtc dt:dt=string>2011-12-15T08:28:00Z</DateUtc></FrequencyChange></FrequencyChanges></Clock>\n	15.12.11 9:28	85.032	1	-1593549955	12-15-2011	9:28:00	8:28:00	2	Experiment	WholeExperiment	NA	2	1	2	2		2	1	2		NA	NA	NA	NA	NA	NA	NA	NA		NA	NA	NA	Block2	Blocks		NA		NA	NA	NA		NA	NA	NA		NA	NA	NA		NA	NA	NA	NA		NA	NA	NA	NA	NA		NA	NA	NA	NA	NA		NA	NA	NA	33	wavs\20_a_tf_axl.wav	NA	NA	NA	34	1	33	a_tf_all	5	937492	0	0	20	0	0	0	pictures\lc_20	Uncover7	Block2List	Die Glocke ist mit Halbkreisen und Sechsecken mit Sternen verbunden.	924024	k	1225	1	932244	k	531	0	932820	k	2415	0	935269	k	501	0	NA	935812	k	484	NA	0	NA	936324	j	1134	NA	0	0	0	0	0	NA	NA	NA	NA	NA	NA	NA	-6experiment_aud_3_1_1	17	17	<?xml version=1.0?>\n<Clock xmlns:dt=urn:schemas-microsoft-com:datatypes><Description dt:dt=string>E-Prime Primary Realtime Clock</Description><StartTime><Timestamp dt:dt=int>0</Timestamp><DateUtc dt:dt=string>2011-12-15T08:28:00Z</DateUtc></StartTime><FrequencyChanges><FrequencyChange><Frequency dt:dt=r8>2593230000</Frequency><Timestamp dt:dt=r8>3923494318198</Timestamp><Current dt:dt=r8>0</Current><DateUtc dt:dt=string>2011-12-15T08:28:00Z</DateUtc></FrequencyChange></FrequencyChanges></Clock>\n	15.12.11 9:28	85.032	1	-1593549955	12-15-2011	9:28:00	8:28:00	2	Experiment	WholeExperiment	NA	2	1	2	2		2	1	2		NA	NA	NA	NA	NA	NA	NA	NA		NA	NA	NA	Block2	Blocks		NA		NA	NA	NA		NA	NA	NA		NA	NA	NA		NA	NA	NA	NA		NA	NA	NA	NA	NA		NA	NA	NA	NA	NA		NA	NA	NA	34	wavs\22_a_tf_axn.wav	NA	NA	NA	35	1	34	a_tf_aln	3	946644	0	0	22	0	0	0	pictures\lc_22	Uncover7	Block2List	Die Glocke ist mit Vierecken und Kreisen mit Blumen verbunden.	941296	k	1792	0	943124	k	353	0	943508	k	1025	0	944580	k	479	0	NA	945092	k	517	NA	0	NA	945636	j	972	NA	0	0	0	0	0	NA	NA	NA	NA	NA	NA	NA	-6experiment_aud_3_1_1	17	17	<?xml version=1.0?>\n<Clock xmlns:dt=urn:schemas-microsoft-com:datatypes><Description dt:dt=string>E-Prime Primary Realtime Clock</Description><StartTime><Timestamp dt:dt=int>0</Timestamp><DateUtc dt:dt=string>2011-12-15T08:28:00Z</DateUtc></StartTime><FrequencyChanges><FrequencyChange><Frequency dt:dt=r8>2593230000</Frequency><Timestamp dt:dt=r8>3923494318198</Timestamp><Current dt:dt=r8>0</Current><DateUtc dt:dt=string>2011-12-15T08:28:00Z</DateUtc></FrequencyChange></FrequencyChanges></Clock>\n	15.12.11 9:28	85.032	1	-1593549955	12-15-2011	9:28:00	8:28:00	2	Experiment	WholeExperiment	NA	2	1	2	2		2	1	2		NA	NA	NA	NA	NA	NA	NA	NA		NA	NA	NA	Block2	Blocks		NA		NA	NA	NA		NA	NA	NA		NA	NA	NA		NA	NA	NA	NA		NA	NA	NA	NA	NA		NA	NA	NA	NA	NA		NA	NA	NA	35	wavs\24_a_tf_axn.wav	NA	NA	NA	36	1	35	a_tf_aln	3	963013	0	0	24	0	0	0	pictures\lc_24	Uncover7	Block2List	Die Glocke ist mit Achtecken und Dreiecken mit Herzen verbunden.	950536	k	3415	1	961187	k	449	0	961667	f	1311	0	0	0	0	NA	NA	0	0	0	NA	NA	NA	0	0	0	NA	NA	0	0	0	0	NA	1	NA	NA	NA	NA	NA	3experiment_aud_3_1_1	17	17	<?xml version=1.0?>\n<Clock xmlns:dt=urn:schemas-microsoft-com:datatypes><Description dt:dt=string>E-Prime Primary Realtime Clock</Description><StartTime><Timestamp dt:dt=int>0</Timestamp><DateUtc dt:dt=string>2011-12-15T08:28:00Z</DateUtc></StartTime><FrequencyChanges><FrequencyChange><Frequency dt:dt=r8>2593230000</Frequency><Timestamp dt:dt=r8>3923494318198</Timestamp><Current dt:dt=r8>0</Current><DateUtc dt:dt=string>2011-12-15T08:28:00Z</DateUtc></FrequencyChange></FrequencyChanges></Clock>\n	15.12.11 9:28	85.032	1	-1593549955	12-15-2011	9:28:00	8:28:00	2	Experiment	WholeExperiment	NA	2	1	2	2		2	1	2		NA	NA	NA	NA	NA	NA	NA	NA		NA	NA	NA	Block2	Blocks		NA		NA	NA	NA		NA	NA	NA		NA	NA	NA		NA	NA	NA	NA		NA	NA	NA	NA	NA		NA	NA	NA	NA	NA		NA	NA	NA	36	wavs\12_a_tf_dxx.wav	NA	NA	NA	37	1	36	a_tf_dec	0	977747	6	0	12	3	0	0	pictures\ec_12	Uncover5	Block2List	Die Schere ist mit Dreiecken, die Sterne beinhalten, und Vierecken verbunden.	967768	k	396	1	974963	k	376	0	975378	k	814	0	976228	k	447	0	0	976707	f	1005	0	NA	NA	0		NA	NA	NA	NA	0		NA	NA	NA	NA	NA	NA	NA	NA	5experiment_aud_3_1_1	17	17	<?xml version=1.0?>\n<Clock xmlns:dt=urn:schemas-microsoft-com:datatypes><Description dt:dt=string>E-Prime Primary Realtime Clock</Description><StartTime><Timestamp dt:dt=int>0</Timestamp><DateUtc dt:dt=string>2011-12-15T08:28:00Z</DateUtc></StartTime><FrequencyChanges><FrequencyChange><Frequency dt:dt=r8>2593230000</Frequency><Timestamp dt:dt=r8>3923494318198</Timestamp><Current dt:dt=r8>0</Current><DateUtc dt:dt=string>2011-12-15T08:28:00Z</DateUtc></FrequencyChange></FrequencyChanges></Clock>\n	15.12.11 9:28	85.032	1	-1593549955	12-15-2011	9:28:00	8:28:00	2	Experiment	WholeExperiment	NA	2	1	2	2		2	1	2		NA	NA	NA	NA	NA	NA	NA	NA		NA	NA	NA	Block2	Blocks		NA		NA	NA	NA		NA	NA	NA		NA	NA	NA		NA	NA	NA	NA		NA	NA	NA	NA	NA		NA	NA	NA	NA	NA		NA	NA	NA	37	wavs\14_a_tf_dxx.wav	NA	NA	NA	38	1	37	a_tf_dec	0	992517	6	0	14	3	0	0	pictures\ec_14	Uncover5	Block2List	Der Stift ist mit Vierecken, die Blitze beinhalten, und Halbkreisen verbunden.	982450	k	406	1	988003	k	1059	0	989091	j	3389	0	0	0	0	NA	0	0	0	0	0	NA	NA	0		NA	NA	NA	NA	0		NA	NA	NA	NA	NA	NA	NA	NA	-3experiment_aud_3_1_1	17	17	<?xml version=1.0?>\n<Clock xmlns:dt=urn:schemas-microsoft-com:datatypes><Description dt:dt=string>E-Prime Primary Realtime Clock</Description><StartTime><Timestamp dt:dt=int>0</Timestamp><DateUtc dt:dt=string>2011-12-15T08:28:00Z</DateUtc></StartTime><FrequencyChanges><FrequencyChange><Frequency dt:dt=r8>2593230000</Frequency><Timestamp dt:dt=r8>3923494318198</Timestamp><Current dt:dt=r8>0</Current><DateUtc dt:dt=string>2011-12-15T08:28:00Z</DateUtc></FrequencyChange></FrequencyChanges></Clock>\n	15.12.11 9:28	85.032	1	-1593549955	12-15-2011	9:28:00	8:28:00	2	Experiment	WholeExperiment	NA	2	1	2	2		2	1	2		NA	NA	NA	NA	NA	NA	NA	NA		NA	NA	NA	Block2	Blocks		NA		NA	NA	NA		NA	NA	NA		NA	NA	NA		NA	NA	NA	NA		NA	NA	NA	NA	NA		NA	NA	NA	NA	NA		NA	NA	NA	38	wavs\26_a_tf_dxx.wav	NA	NA	NA	39	1	38	a_tf_dlc	3	1003331	0	0	26	0	0	0	pictures\lc_26	Uncover7	Block2List	Die Uhr ist mit Achtecken, die Sonnen beinhalten, und Halbkreisen verbunden.	997560	k	2974	0	1000579	k	507	0	1001123	f	2174	0	0	0	0	NA	NA	0	0	0	NA	NA	NA	0	0	0	NA	NA	0	0	0	0	NA	1	NA	NA	NA	NA	NA	3experiment_aud_3_1_1	17	17	<?xml version=1.0?>\n<Clock xmlns:dt=urn:schemas-microsoft-com:datatypes><Description dt:dt=string>E-Prime Primary Realtime Clock</Description><StartTime><Timestamp dt:dt=int>0</Timestamp><DateUtc dt:dt=string>2011-12-15T08:28:00Z</DateUtc></StartTime><FrequencyChanges><FrequencyChange><Frequency dt:dt=r8>2593230000</Frequency><Timestamp dt:dt=r8>3923494318198</Timestamp><Current dt:dt=r8>0</Current><DateUtc dt:dt=string>2011-12-15T08:28:00Z</DateUtc></FrequencyChange></FrequencyChanges></Clock>\n	15.12.11 9:28	85.032	1	-1593549955	12-15-2011	9:28:00	8:28:00	2	Experiment	WholeExperiment	NA	2	1	2	2		2	1	2		NA	NA	NA	NA	NA	NA	NA	NA		NA	NA	NA	Block2	Blocks		NA		NA	NA	NA		NA	NA	NA		NA	NA	NA		NA	NA	NA	NA		NA	NA	NA	NA	NA		NA	NA	NA	NA	NA		NA	NA	NA	39	wavs\28_a_tf_dxx.wav	NA	NA	NA	40	1	39	a_tf_dlc	3	1016483	0	0	28	0	0	0	pictures\lc_28	Uncover7	Block2List	Die Uhr ist mit Kreisen, die Blitze beinhalten, und Sechsecken verbunden.	1008078	k	3368	0	1011476	k	838	0	1012355	f	4095	0	0	0	0	NA	NA	0	0	0	NA	NA	NA	0	0	0	NA	NA	0	0	0	0	NA	1	NA	NA	NA	NA	NA	3experiment_aud_3_2_2	18	18	<?xml version=1.0?>\n<Clock xmlns:dt=urn:schemas-microsoft-com:datatypes><Description dt:dt=string>E-Prime Primary Realtime Clock</Description><StartTime><Timestamp dt:dt=int>0</Timestamp><DateUtc dt:dt=string>2011-12-15T09:28:29Z</DateUtc></StartTime><FrequencyChanges><FrequencyChange><Frequency dt:dt=r8>2593230000</Frequency><Timestamp dt:dt=r8>13334271779608</Timestamp><Current dt:dt=r8>0</Current><DateUtc dt:dt=string>2011-12-15T09:28:29Z</DateUtc></FrequencyChange></FrequencyChanges></Clock>\n	15.12.11 10:28	85.032	1	-1099531402	12-15-2011	10:28:30	9:28:30	1	Practice	WholeExperiment	NA	1	1	1	1	wavs\01_a_rf_fff.wav	NA	NA	NA	a_rf_fff	-3	63523	0	0	1	0	0	0	pictures\rf_01	1	1	1	Uncover6	PractiseList	Jeder Brief ist mit der Hälfte seiner Kreise verbunden.	31556	k	5646	0	37235	k	3454	0	40721	f	12824	1	0	0	0	NA	NA	0	0	0	NA	NA	0	0	0	0	1	NA	NA	0		NA	NA	1	NA		NA	NA	NA	NA	NA	NA		NA	NA	NA	NA	NA	NA	NA	NA					NA		NA	NA	NA		NA	NA	NA		NA	NA	NA		NA	NA	NA	NA		NA	NA	NA	NA	NA		NA	NA	NA	NA	NA		NA	NA	NA	NA	NA	NA	NA	NA	0experiment_aud_3_2_2	18	18	<?xml version=1.0?>\n<Clock xmlns:dt=urn:schemas-microsoft-com:datatypes><Description dt:dt=string>E-Prime Primary Realtime Clock</Description><StartTime><Timestamp dt:dt=int>0</Timestamp><DateUtc dt:dt=string>2011-12-15T09:28:29Z</DateUtc></StartTime><FrequencyChanges><FrequencyChange><Frequency dt:dt=r8>2593230000</Frequency><Timestamp dt:dt=r8>13334271779608</Timestamp><Current dt:dt=r8>0</Current><DateUtc dt:dt=string>2011-12-15T09:28:29Z</DateUtc></FrequencyChange></FrequencyChanges></Clock>\n	15.12.11 10:28	85.032	1	-1099531402	12-15-2011	10:28:30	9:28:30	1	Practice	WholeExperiment	NA	1	1	1	2	wavs\08_a_rf_fff.wav	NA	NA	NA	a_rf_fff	-2	80034	0	0	8	0	0	0	pictures\rf_08	2	1	2	Uncover6	PractiseList	Kein Blitz ist mit einigen Dreiecken verbunden.	68478	k	2650	0	71154	f	3333	1	0	0	0	NA	0	0	0	NA	NA	0	0	0	NA	NA	0	0	0	0	1	NA	NA	0		NA	NA	1	NA		NA	NA	NA	NA	NA	NA		NA	NA	NA	NA	NA	NA	NA	NA					NA		NA	NA	NA		NA	NA	NA		NA	NA	NA		NA	NA	NA	NA		NA	NA	NA	NA	NA		NA	NA	NA	NA	NA		NA	NA	NA	NA	NA	NA	NA	NA	0experiment_aud_3_2_2	18	18	<?xml version=1.0?>\n<Clock xmlns:dt=urn:schemas-microsoft-com:datatypes><Description dt:dt=string>E-Prime Primary Realtime Clock</Description><StartTime><Timestamp dt:dt=int>0</Timestamp><DateUtc dt:dt=string>2011-12-15T09:28:29Z</DateUtc></StartTime><FrequencyChanges><FrequencyChange><Frequency dt:dt=r8>2593230000</Frequency><Timestamp dt:dt=r8>13334271779608</Timestamp><Current dt:dt=r8>0</Current><DateUtc dt:dt=string>2011-12-15T09:28:29Z</DateUtc></FrequencyChange></FrequencyChanges></Clock>\n	15.12.11 10:28	85.032	1	-1099531402	12-15-2011	10:28:30	9:28:30	1	Practice	WholeExperiment	NA	1	1	1	3	wavs\11_a_rf_fff.wav	NA	NA	NA	a_rf_fff	-6	101361	0	0	11	0	0	0	pictures\rf_11	3	1	3	Uncover6	PractiseList	Einige Stifte sind mit genau sechs Sechsecken verbunden.	85378	k	2267	0	87681	k	2054	0	89761	k	2180	0	91970	k	3249	0	NA	95249	k	2752	NA	0	0	98033	f	3293	0	NA	NA	0		NA	NA	NA	NA		NA	NA	NA	NA	NA	NA		NA	NA	NA	NA	NA	NA	NA	NA					NA		NA	NA	NA		NA	NA	NA		NA	NA	NA		NA	NA	NA	NA		NA	NA	NA	NA	NA		NA	NA	NA	NA	NA		NA	NA	NA	NA	NA	NA	NA	NA	0experiment_aud_3_2_2	18	18	<?xml version=1.0?>\n<Clock xmlns:dt=urn:schemas-microsoft-com:datatypes><Description dt:dt=string>E-Prime Primary Realtime Clock</Description><StartTime><Timestamp dt:dt=int>0</Timestamp><DateUtc dt:dt=string>2011-12-15T09:28:29Z</DateUtc></StartTime><FrequencyChanges><FrequencyChange><Frequency dt:dt=r8>2593230000</Frequency><Timestamp dt:dt=r8>13334271779608</Timestamp><Current dt:dt=r8>0</Current><DateUtc dt:dt=string>2011-12-15T09:28:29Z</DateUtc></FrequencyChange></FrequencyChanges></Clock>\n	15.12.11 10:28	85.032	1	-1099531402	12-15-2011	10:28:30	9:28:30	1	Practice	WholeExperiment	NA	1	1	1	4	wavs\16_a_rf_fff.wav	NA	NA	NA	a_rf_fff	-6	139858	0	0	16	0	0	0	pictures\rf_16	4	1	4	Uncover6	PractiseList	Die Hälfte der Scheren hat mehr als vier Verbindungen.	119392	k	2080	0	121504	k	2934	0	124464	k	1667	0	126161	k	2101	0	NA	128288	k	4805	NA	0	0	133121	f	6695	0	NA	NA	0		NA	NA	NA	NA		NA	NA	NA	NA	NA	NA		NA	NA	NA	NA	NA	NA	NA	NA					NA		NA	NA	NA		NA	NA	NA		NA	NA	NA		NA	NA	NA	NA		NA	NA	NA	NA	NA		NA	NA	NA	NA	NA		NA	NA	NA	NA	NA	NA	NA	NA	0experiment_aud_3_2_2	18	18	<?xml version=1.0?>\n<Clock xmlns:dt=urn:schemas-microsoft-com:datatypes><Description dt:dt=string>E-Prime Primary Realtime Clock</Description><StartTime><Timestamp dt:dt=int>0</Timestamp><DateUtc dt:dt=string>2011-12-15T09:28:29Z</DateUtc></StartTime><FrequencyChanges><FrequencyChange><Frequency dt:dt=r8>2593230000</Frequency><Timestamp dt:dt=r8>13334271779608</Timestamp><Current dt:dt=r8>0</Current><DateUtc dt:dt=string>2011-12-15T09:28:29Z</DateUtc></FrequencyChange></FrequencyChanges></Clock>\n	15.12.11 10:28	85.032	1	-1099531402	12-15-2011	10:28:30	9:28:30	1	Practice	WholeExperiment	NA	1	1	1	5	wavs\21_a_rf_fff.wav	NA	NA	NA	a_rf_fff	-3	162801	0	0	21	0	0	0	pictures\rf_21	5	1	5	Uncover5	PractiseList	Die Hälfte der Briefe ist mit genau zwei ihrer Fünfecke verbunden.	145234	k	7218	0	152481	k	1546	0	154065	k	1586	0	155680	f	7095	0	0	0	0	0	0	NA	NA	0		NA	NA	NA	NA	0		NA	NA	NA	NA		NA	NA	NA	NA	NA	NA		NA	NA	NA	NA	NA	NA	NA	NA					NA		NA	NA	NA		NA	NA	NA		NA	NA	NA		NA	NA	NA	NA		NA	NA	NA	NA	NA		NA	NA	NA	NA	NA		NA	NA	NA	NA	NA	NA	NA	NA	0